File: XRD/310-01.txt
?
20.0     1
20.05916 5
20.11832 10
20.17749 13
20.23665 11
20.29582 9
20.35498 10
20.41414 9
20.47331 7
20.53247 5
20.59164 5
20.65080 13
20.70996 20
20.76913 17
20.82829 14
20.88746 8
20.94662 7
21.00578 7
21.06495 6
21.12411 15
21.18328 7
21.24244 0
21.30161 16
21.36077 11
21.41993 16
21.47910 17
21.53826 18
21.59743 8
21.65659 16
21.71575 23
21.77492 17
21.83408 8
21.89325 20
21.95241 20
22.01158 13
22.07074 8
22.12990 17
22.18907 16
22.24823 9
22.3074  7
22.36656 17
22.42572 24
22.48489 13
22.54405 17
22.60322 14
22.66238 13
22.72154 17
22.78071 7
22.83987 14
22.89904 21
22.95820 11
23.01736 13
23.07653 14
23.13569 15
23.19486 9
23.25402 8
23.31318 17
23.37235 10
23.43151 14
23.49068 24
23.54984 4
23.60900 8
23.66817 19
23.72733 15
23.78650 22
23.84566 27
23.90483 16
23.96399 22
24.02315 28
24.08232 26
24.14148 36
24.20065 56
24.25981 94
24.31897 146
24.37814 192
24.43730 230
24.49647 171
24.55563 89
24.61479 53
24.67396 29
24.73312 27
24.79229 24
24.85145 24
24.91062 16
24.96978 15
25.02894 20
25.08811 18
25.14727 17
25.20644 10
25.26560 20
25.32476 18
25.38393 13
25.44309 13
25.50226 19
25.56142 11
25.62058 14
25.67975 15
25.73891 24
25.79808 10
25.85724 13
25.91640 8
25.97557 6
26.03473 18
26.09390 16
26.15306 7
26.21223 13
26.27139 10
26.33055 14
26.38972 7
26.44888 15
26.50805 13
26.56721 18
26.62637 11
26.68554 13
26.74470 14
26.80387 9
26.86303 11
26.92219 13
26.98136 10
27.04052 13
27.09969 15
27.15885 12
27.21801 20
27.27718 10
27.33634 21
27.39551 16
27.45467 5
27.51384 9
27.57300 20
27.63216 12
27.69133 17
27.75049 14
27.80966 16
27.86882 24
27.92798 18
27.98715 17
28.04631 12
28.10548 25
28.16464 17
28.22380 33
28.28297 26
28.34213 22
28.4013  16
28.46046 10
28.51963 5
28.57879 16
28.63795 12
28.69712 15
28.75628 18
28.81545 16
28.87461 7
28.93377 11
28.99294 13
29.05210 13
29.11127 11
29.17043 7
29.22959 27
29.28876 18
29.34792 7
29.40709 26
29.46625 16
29.52541 8
29.58458 12
29.64374 6
29.70291 17
29.76207 23
29.82123 7
29.88040 26
29.93956 22
29.99873 12
30.05789 10
30.11706 20
30.17622 31
30.23538 13
30.29455 11
30.35371 23
30.41288 13
30.47204 17
30.53120 17
30.59037 11
30.64953 20
30.7087  12
30.76786 15
30.82702 13
30.88619 18
30.94535 14
31.00452 10
31.06368 19
31.12285 11
31.18201 7
31.24117 21
31.30034 17
31.35950 18
31.41867 17
31.47783 12
31.53699 14
31.59616 12
31.65532 21
31.71449 14
31.77365 8
31.83281 24
31.89198 17
31.95114 26
32.01031 17
32.06947 0
32.12863 14
32.18780 24
32.24696 4
32.30613 19
32.36529 29
32.42446 12
32.48362 15
32.54278 12
32.60195 10
32.66111 19
32.72028 13
32.77944 22
32.83860 32
32.89777 12
32.95693 14
33.01610 29
33.07526 28
33.13443 38
33.19359 61
33.25275 105
33.31192 134
33.37108 198
33.43024 253
33.48941 229
33.54857 183
33.60774 145
33.66690 86
33.72607 52
33.78523 40
33.84439 33
33.90356 30
33.96272 34
34.02188 19
34.08105 17
34.14021 20
34.19938 18
34.25854 24
34.31771 16
34.37687 19
34.43603 10
34.49520 11
34.55436 22
34.61353 19
34.67269 3
34.73186 10
34.79102 9
34.85018 13
34.90935 12
34.96851 9
35.02767 18
35.08684 21
35.14600 19
35.20517 25
35.26433 16
35.32350 23
35.38266 27
35.44183 5
35.50099 24
35.56015 35
35.61932 36
35.67848 51
35.73764 82
35.79681 100
35.85597 125
35.91514 173
35.97430 169
36.03347 148
36.09263 134
36.15179 77
36.21096 59
36.27012 47
36.32928 36
36.38845 33
36.44761 28
36.50678 20
36.56594 23
36.62511 22
36.68427 11
36.74343 16
36.80260 20
36.86176 13
36.92092 13
36.98009 16
37.03926 23
37.09842 14
37.15758 7
37.21675 13
37.27591 16
37.33507 15
37.39424 15
37.45340 20
37.51257 20
37.57173 13
37.63090 14
37.69006 13
37.74922 14
37.80839 11
37.86755 11
37.92672 16
37.98588 18
38.04504 11
38.10421 20
38.16337 15
38.22254 9
38.28170 12
38.34087 12
38.40003 18
38.45919 24
38.51836 11
38.57752 8
38.63668 13
38.69585 8
38.75501 6
38.81418 12
38.87334 9
38.93251 16
38.99167 19
39.05083 12
39.11000 6
39.16916 16
39.22832 20
39.28749 16
39.34665 20
39.40582 13
39.46498 22
39.52415 28
39.58331 17
39.64247 18
39.70164 24
39.76080 5
39.81997 9
39.87913 25
39.93830 10
39.99746 17
40.05662 14
40.11579 8
40.17495 7
40.23411 14
40.29328 15
40.35244 20
40.41161 8
40.47077 13
40.52994 12
40.58910 9
40.64827 10
40.70743 21
40.76659 11
40.82576 13
40.88492 16
40.94408 20
41.00325 39
41.06241 50
41.12158 61
41.18074 86
41.23991 101
41.29907 101
41.35823 79
41.4174  72
41.47656 57
41.53572 34
41.59489 36
41.65405 29
41.71322 20
41.77238 16
41.83155 5
41.89071 10
41.94987 23
42.00904 14
42.06820 15
42.12737 15
42.18653 11
42.24570 19
42.30486 23
42.36402 21
42.42319 8
42.48235 10
42.54151 21
42.60068 16
42.65984 16
42.71901 21
42.77817 8
42.83734 9
42.89650 24
42.95566 26
43.01483 9
43.07399 21
43.13316 22
43.19232 24
43.25148 37
43.31065 33
43.36981 48
43.42898 74
43.48814 108
43.54731 228
43.60647 785
43.66563 2193
43.7248  3615
43.78396 2695
43.84312 749
43.90229 224
43.96145 109
44.02062 70
44.07978 54
44.13895 57
44.19811 48
44.25727 37
44.31644 33
44.37560 38
44.43477 31
44.49393 15
44.55310 13
44.61226 20
44.67142 26
44.73059 12
44.78975 6
44.84891 14
44.90808 12
44.96724 6
45.02641 9
45.08557 12
45.14474 13
45.20390 8
45.26306 9
45.32223 12
45.38139 8
45.44055 11
45.49972 11
45.55888 10
45.61805 18
45.67721 13
45.73638 5
45.79554 11
45.85471 11
45.91387 19
45.97303 15
46.0322  9
46.09136 5
46.15052 23
46.20969 24
46.26885 17
46.32802 6
46.38718 8
46.44635 12
46.50551 14
46.56467 13
46.62384 11
46.68300 12
46.74217 9
46.80133 15
46.8605  20
46.91966 13
46.97882 10
47.03799 10
47.09715 5
47.15631 7
47.21548 15
47.27464 17
47.33381 20
47.39297 24
47.45214 14
47.51130 14
47.57046 6
47.62963 8
47.68879 23
47.74795 17
47.80712 14
47.86628 12
47.92545 9
47.98461 16
48.04378 12
48.10294 13
48.16210 13
48.22127 25
48.28043 17
48.3396  5
48.39876 14
48.45792 22
48.51709 14
48.57625 12
48.63542 19
48.69458 14
48.75375 5
48.81291 14
48.87207 20
48.93124 21
48.99040 18
49.04956 11
49.10873 13
49.1679  28
49.22706 29
49.28622 11
49.34539 20
49.40455 25
49.46371 19
49.52288 28
49.58204 39
49.64121 28
49.70037 25
49.75954 27
49.81870 40
49.87786 54
49.93703 69
49.99619 73
50.05535 57
50.11452 54
50.17368 42
50.23285 32
50.29201 47
50.35118 53
50.41034 43
50.46950 50
50.52867 74
50.58783 129
50.64699 223
50.70616 469
50.76532 901
50.82449 1178
50.88365 1192
50.94282 1067
51.00198 654
51.06115 280
51.12031 147
51.17947 94
51.23864 67
51.29780 35
51.35696 27
51.41613 32
51.47529 38
51.53446 23
51.59362 10
51.65279 15
51.71195 22
51.77111 22
51.83028 19
51.88944 17
51.94861 18
52.00777 16
52.06694 12
52.12610 8
52.18526 19
52.24443 17
52.30359 17
52.36275 15
52.42192 9
52.48108 12
52.54025 19
52.59941 17
52.65858 2
52.71774 12
52.77690 11
52.83607 14
52.89523 9
52.95439 15
53.01356 10
53.07272 13
53.13189 16
53.19105 16
53.25022 10
53.30938 2
53.36854 14
53.42771 25
53.48687 22
53.54604 14
53.60520 11
53.66436 8
53.72353 4
53.78269 10
53.84186 21
53.90102 27
53.96019 24
54.01935 16
54.07851 15
54.13768 17
54.19684 21
54.25601 27
54.31517 38
54.37434 57
54.43350 82
54.49266 74
54.55183 76
54.61099 84
54.67015 99
54.72932 76
54.78848 58
54.84765 38
54.90681 46
54.96598 35
55.02514 22
55.08430 16
55.14347 9
55.20263 13
55.26179 17
55.32096 21
55.38012 12
55.43929 5
55.49845 19
55.55762 23
55.61678 9
55.67594 12
55.73511 18
55.79427 20
55.85343 9
55.91260 18
55.97176 14
56.03093 17
56.09009 18
56.14926 22
56.20842 13
56.26759 13
56.32675 14
56.38591 13
56.44508 18
56.50424 9
56.56341 5
56.62257 15
56.68174 20
56.74090 20
56.80006 13
56.85923 5
56.91839 9
56.97755 17
57.03672 19
57.09588 18
57.15505 16
57.21421 6
57.27338 11
57.33254 18
57.39170 23
57.45087 19
57.51003 8
57.56919 9
57.62836 12
57.68752 23
57.74669 22
57.80585 25
57.86502 24
57.92418 18
57.98334 12
58.04251 20
58.10167 27
58.16083 20
58.22000 5
58.27916 10
58.33833 20
58.39749 26
58.45666 29
58.51582 26
58.57498 9
58.63415 11
58.69331 20
58.75248 21
58.81164 23
58.87081 15
58.92997 13
58.98914 18
59.04830 14
59.10746 7
59.16663 15
59.22579 9
59.28495 8
59.34412 23
59.40328 21
59.46245 15
59.52161 10
59.58078 7
59.63994 18
59.69910 12
59.75827 10
59.81743 19
59.87659 23
59.93576 6
59.99492 6
60.05409 10
60.11325 24
60.17242 18
60.23158 8
60.29074 9
60.34991 23
60.40907 25
60.46823 14
60.52740 8
60.58656 10
60.64573 10
60.70489 8
60.76406 8
60.82322 11
60.88238 10
60.94155 14
61.00071 11
61.05987 14
61.11904 9
61.17820 15
61.23737 14
61.29653 11
61.35570 11
61.41486 0
61.47403 3
61.53319 21
61.59235 20
61.65152 17
61.71068 8
61.76985 13
61.82901 5
61.88818 11
61.94734 15
62.00650 25
62.06567 16
62.12483 7
62.18399 7
62.24316 6
62.30232 14
62.36149 18
62.42065 17
62.47982 18
62.53898 15
62.59814 16
62.65731 16
62.71647 37
62.77563 31
62.83480 48
62.89396 54
62.95313 57
63.01229 65
63.07146 57
63.13062 55
63.18978 29
63.24895 38
63.30811 41
63.36727 36
63.42644 33
63.48560 14
63.54477 10
63.60393 13
63.66310 27
63.72226 21
63.78142 8
63.84059 11
63.89975 18
63.95892 19
64.01808 11
64.07724 13
64.13641 10
64.19558 20
64.25474 26
64.31390 30
64.37307 16
64.43223 15
64.49140 17
64.55056 39
64.60972 40
64.66889 38
64.72805 18
64.78721 17
64.84638 21
64.90554 29
64.96471 32
65.02387 21
65.08303 15
65.14220 9
65.20137 13
65.26052 12
65.31969 11
65.37886 22
65.43802 20
65.49718 9
65.55635 4
65.61551 4
65.67468 12
65.73384 15
65.79300 6
65.85217 17
65.91133 26
65.97049 10
66.02966 7
66.08882 5
66.14799 17
66.20716 16
66.26631 21
66.32548 16
66.38465 11
66.44381 4
66.50297 12
66.56214 19
66.62130 17
66.68047 20
66.73963 16
66.79879 10
66.85796 11
66.91713 13
66.97628 13
67.03545 12
67.09462 16
67.15378 23
67.21294 23
67.27211 18
67.33127 13
67.39044 7
67.4496  14
67.50876 17
67.56793 19
67.62709 19
67.68625 11
67.74542 8
67.80458 17
67.86375 15
67.92291 13
67.98207 14
68.04124 14
68.10041 16
68.15956 13
68.21873 21
68.27790 21
68.33706 19
68.39622 16
68.45539 10
68.51455 12
68.57372 15
68.63288 7
68.69204 19
68.75121 29
68.81037 26
68.86954 22
68.92870 19
68.98786 13
69.04703 11
69.10620 25
69.16535 20
69.22452 21
69.28369 13
69.34285 25
69.40201 16
69.46118 18
69.52034 20
69.57951 12
69.63867 6
69.69783 14
69.75700 18
69.81617 24
69.87532 18
69.93449 12
69.99366 14
70.05282 6
70.11198 13
70.17115 15
70.23031 17
70.28948 26
70.34864 24
70.40780 17
70.46697 20
70.52613 9
70.58529 10
70.64446 10
70.70362 15
70.76279 18
70.82195 18
70.88111 12
70.94028 10
70.99945 15
71.05861 7
71.11777 17
71.17694 18
71.23610 22
71.29527 11
71.35443 5
71.41359 11
71.47276 13
71.53192 10
71.59108 15
71.65025 13
71.70941 15
71.76858 13
71.82774 10
71.88690 12
71.94607 13
72.00524 16
72.0644  29
72.12356 7
72.18273 17
72.24189 15
72.30105 12
72.36022 16
72.41938 10
72.47855 17
72.53771 18
72.59687 22
72.65604 18
72.71521 14
72.77436 21
72.83353 11
72.8927  16
72.95186 16
73.01102 16
73.07019 19
73.12935 9
73.18852 4
73.24768 12
73.30684 22
73.36601 19
73.42517 15
73.48434 11
73.54350 6
73.60266 10
73.66183 16
73.72100 18
73.78015 16
73.83932 10
73.89849 15
73.95765 20
74.01681 18
74.07598 10
74.13514 15
74.19431 10
74.25347 18
74.31263 25
74.37180 24
74.43096 46
74.49012 50
74.54929 82
74.60845 171
74.66762 420
74.72678 771
74.78595 624
74.84511 413
74.90428 330
74.96344 200
75.02260 113
75.08177 47
75.14093 35
75.20009 37
75.25926 20
75.31842 20
75.37759 20
75.43675 20
75.49591 13
75.55508 3
75.61425 1
75.67340 0
75.73257 11
75.79174 21
75.85090 21
75.91007 14
75.96923 8
76.02839 14
76.08756 10
76.14672 12
76.20588 18
76.26505 11
76.32421 20
76.38338 18
76.44254 5
76.50170 14
76.56087 4
76.62004 12
76.67919 15
76.73836 19
76.79753 22
76.85669 17
76.91585 2
76.97502 0
77.03418 4
77.09335 8
77.15251 17
77.21167 25
77.27084 12
77.33000 9
77.38916 14
77.44833 10
77.5075  20
77.56666 19
77.62582 5
77.68499 9
77.74415 6
77.80332 6
77.86248 15
77.92164 12
77.98081 12
78.03997 14
78.09913 10
78.15830 12
78.21746 9
78.27663 9
78.3358  10
78.39495 7
78.45412 6
78.51329 23
78.57245 22
78.63161 16
78.69078 13
78.74994 10
78.80911 12
78.86827 4
78.92743 13
78.98660 17
79.04576 18
79.10492 12
79.16409 7
79.22325 8
79.28242 16
79.34158 10
79.40074 14
79.45991 13
79.51908 11
79.57823 11
79.63740 0
79.69657 3
79.75573 6
79.81489 21
79.87406 16
79.93322 12
79.99239 3
80.05155 16
80.11071 8
80.16988 10
80.22905 21
80.28820 16
80.34737 10
80.40654 11
80.46570 8
80.52486 5
80.58403 9
80.64319 9
80.70236 13
80.76152 14
80.82068 14
80.87985 4
80.93901 9
80.99818 11
81.05734 8
81.11650 7
81.17567 15
81.23484 11
81.29399 9
81.35316 17
81.41233 9
81.47149 8
81.53065 11
81.58982 4
81.64898 13
81.70815 11
81.76731 11
81.82647 18
81.88564 8
81.94480 3
82.00396 12
82.06313 8
82.12229 10
82.18146 15
82.24062 13
82.29978 17
82.35895 9
82.41812 7
82.47728 6
82.53644 9
82.59561 13
82.65477 7
82.71393 12
82.77310 17
82.83226 7
82.89143 11
82.95059 10
83.00975 6
83.06892 18
83.12809 10
83.18725 17
83.24641 19
83.30558 7
83.36474 19
83.42391 12
83.48307 14
83.54223 18
83.60140 4
83.66056 5
83.71972 12
83.77889 13
83.83805 15
83.89722 15
83.95638 11
84.01554 13
84.07471 18
84.13388 15
84.19303 12
84.25220 7
84.31137 11
84.37053 12
84.42969 14
84.48886 18
84.54802 11
84.60719 5
84.66635 17
84.72551 11
84.78468 5
84.84384 12
84.90300 10
84.96217 9
85.02133 19
85.08050 17
85.13966 14
85.19883 18
85.25799 12
85.31716 10
85.37632 15
85.43548 15
85.49465 14
85.55381 14
85.61298 23
85.67214 26
85.73130 15
85.79047 13
85.84964 6
85.90879 17
85.96796 20
86.02713 17
86.08629 19
86.14545 12
86.20462 17
86.26378 21
86.32295 14
86.38211 18
86.44127 28
86.50044 18
86.55960 14
86.61876 18
86.67793 6
86.73709 11
86.79626 8
86.85542 12
86.91458 25
86.97375 19
87.03292 17
87.09207 26
87.15124 15
87.21041 11
87.26957 13
87.32873 14
87.38790 21
87.44706 14
87.50623 19
87.56539 23
87.62455 8
87.68372 20
87.74288 31
87.80204 24
87.86121 15
87.92038 17
87.97954 16
88.03871 11
88.09787 14
88.15703 13
88.21620 9
88.27536 23
88.33452 18
88.39369 4
88.45285 7
88.51202 11
88.57118 10
88.63034 22
88.68951 22
88.74868 25
88.80783 25
88.86700 18
88.92617 14
88.98533 16
89.04449 20
89.10366 8
89.16282 24
89.22199 31
89.28115 19
89.34031 19
89.39948 25
89.45864 20
89.51780 20
89.57697 24
89.63613 25
89.69530 17
89.75446 24
89.81362 26
89.87279 23
89.93196 21
89.99111 21