File: XRD/310-01.uxd
;content of D:\data\result\mecham\???\20231225-89741\310-01.raw - (Diffrac Plus V4 file)
_FILEVERSION = 3
_SAMPLE
_+SAMPLE
_USER = Lab Manager
_GONIOMETER_CODE = 21
_STAGE_CODE = 7
; Goniometer : D8 theta/theta, stage : Chi drive
_SAMPLE_CHANGER_CODE = 0
_ATTACHMENTS_CODE = 0
_GONIOMETER_RADIUS = 280
_MONOCHROMATOR = 0
; Incident beam monochromator : None
_BETA_FILTER = N
_ANALYZER_CODE = 0
; Received beam analyzer : None
_DATEMEASURED = 25-Dec-2023 09:45:02
_RUNTIME = 11.28583
_WL_UNIT = A
_WL1 = 1.5406
_WL2 = 1.54439
_WL3 = 1.39222
_WLRATIO = 0.5
_ANODE = Cu
_V4_INF_USER = Lab Manager
_V4_INF_CREATOR = V5Converter
_V4_INF_CREATOR_VERSION = 4.4.16.0

; Data for range 1
_DRIVE = COUPLED
_STEPTIME = 57.6
_STEPSIZE = 0.019721
_STEPMODE = C
_START = 20
_THETA = 10
_2THETA = 20
_KHI = 0
_PHI = 0
_DETECTORSLIT = out
_AUX1 = 0
_TIMESTARTED = 0
_KV = 40
_MA = 40
_RANGE_WL = 1.5406
_3DPLANE = 0
_V4_PSD2THETA = 9999
_V4_PSDCHANNEL1 = 0
_V4_PSDAPERTURE = 2.839876
_V4_PSDTYPE = 5
_V4_PSDFIXED = 0
_V4_COUNTERS_MASK = 1
_V4_DRIVES_MASK = 0
_V4_ENCODERS_MASK = 0
_2THETACOUNTS = 1
; 2THETA	Cnt2_D1
20	140
20.0592	126
20.1183	138
20.1775	157
20.2367	154
20.2958	143
20.355	127
20.4141	137
20.4733	146
20.5325	140
20.5916	140
20.6508	152
20.71	144
20.7691	140
20.8283	159
20.8875	139
20.9466	129
21.0058	122
21.065	130
21.1241	143
21.1833	128
21.2424	128
21.3016	139
21.3608	123
21.4199	134
21.4791	139
21.5383	144
21.5974	126
21.6566	140
21.7158	142
21.7749	131
21.8341	137
21.8933	147
21.9524	142
22.0116	135
22.0707	127
22.1299	145
22.1891	120
22.2482	134
22.3074	126
22.3666	131
22.4257	146
22.4849	135
22.5441	151
22.6032	129
22.6624	123
22.7215	157
22.7807	125
22.8399	144
22.899	148
22.9582	119
23.0174	139
23.0765	134
23.1357	134
23.1949	125
23.254	125
23.3132	128
23.3724	139
23.4315	137
23.4907	132
23.5498	122
23.609	131
23.6682	139
23.7273	143
23.7865	119
23.8457	164
23.9048	129
23.964	116
24.0232	188
24.0823	158
24.1415	164
24.2006	192
24.2598	243
24.319	301
24.3781	370
24.4373	468
24.4965	414
24.5556	278
24.6148	216
24.674	170
24.7331	150
24.7923	159
24.8515	166
24.9106	126
24.9698	129
25.0289	135
25.0881	139
25.1473	152
25.2064	117
25.2656	137
25.3248	139
25.3839	143
25.4431	147
25.5023	142
25.5614	131
25.6206	115
25.6798	112
25.7389	150
25.7981	138
25.8572	139
25.9164	130
25.9756	132
26.0347	139
26.0939	147
26.1531	120
26.2122	147
26.2714	123
26.3306	141
26.3897	128
26.4489	138
26.5081	116
26.5672	149
26.6264	139
26.6855	144
26.7447	122
26.8039	128
26.863	114
26.9222	126
26.9814	123
27.0405	139
27.0997	134
27.1589	146
27.218	156
27.2772	119
27.3363	144
27.3955	135
27.4547	128
27.5138	131
27.573	150
27.6322	125
27.6913	138
27.7505	144
27.8097	116
27.8688	150
27.928	105
27.9872	154
28.0463	122
28.1055	148
28.1646	118
28.2238	148
28.283	134
28.3421	124
28.4013	115
28.4605	129
28.5196	128
28.5788	133
28.638	133
28.6971	132
28.7563	144
28.8154	129
28.8746	115
28.9338	122
28.9929	127
29.0521	126
29.1113	138
29.1704	131
29.2296	152
29.2888	133
29.3479	113
29.4071	137
29.4663	121
29.5254	105
29.5846	120
29.6437	131
29.7029	134
29.7621	121
29.8212	133
29.8804	149
29.9396	112
29.9987	151
30.0579	125
30.1171	136
30.1762	134
30.2354	127
30.2946	147
30.3537	133
30.4129	104
30.472	136
30.5312	145
30.5904	123
30.6495	112
30.7087	118
30.7679	127
30.827	129
30.8862	142
30.9454	119
31.0045	124
31.0637	126
31.1228	117
31.182	134
31.2412	138
31.3003	140
31.3595	124
31.4187	128
31.4778	123
31.537	131
31.5962	123
31.6553	117
31.7145	134
31.7737	125
31.8328	125
31.892	146
31.9511	162
32.0103	119
32.0695	125
32.1286	113
32.1878	140
32.247	119
32.3061	129
32.3653	160
32.4245	121
32.4836	151
32.5428	121
32.602	119
32.6611	142
32.7203	139
32.7794	144
32.8386	128
32.8978	135
32.9569	121
33.0161	148
33.0753	161
33.1344	154
33.1936	192
33.2528	244
33.3119	274
33.3711	383
33.4302	443
33.4894	486
33.5486	398
33.6077	333
33.6669	274
33.7261	215
33.7852	188
33.8444	150
33.9036	142
33.9627	156
34.0219	145
34.0811	120
34.1402	131
34.1994	146
34.2585	141
34.3177	138
34.3769	132
34.436	130
34.4952	123
34.5544	132
34.6135	139
34.6727	127
34.7319	122
34.791	118
34.8502	140
34.9094	121
34.9685	133
35.0277	131
35.0868	135
35.146	141
35.2052	137
35.2643	142
35.3235	150
35.3827	138
35.4418	126
35.501	140
35.5602	146
35.6193	182
35.6785	174
35.7376	200
35.7968	248
35.856	281
35.9151	346
35.9743	340
36.0335	356
36.0926	305
36.1518	262
36.211	219
36.2701	167
36.3293	167
36.3885	126
36.4476	145
36.5068	146
36.5659	153
36.6251	128
36.6843	142
36.7434	126
36.8026	138
36.8618	126
36.9209	145
36.9801	134
37.0393	141
37.0984	116
37.1576	121
37.2168	130
37.2759	132
37.3351	127
37.3942	125
37.4534	134
37.5126	153
37.5717	122
37.6309	130
37.6901	122
37.7492	134
37.8084	138
37.8676	118
37.9267	139
37.9859	128
38.045	118
38.1042	150
38.1634	107
38.2225	123
38.2817	110
38.3409	134
38.4	110
38.4592	130
38.5184	136
38.5775	90
38.6367	125
38.6959	111
38.755	127
38.8142	121
38.8733	133
38.9325	116
38.9917	125
39.0508	100
39.11	120
39.1692	125
39.2283	151
39.2875	112
39.3467	149
39.4058	121
39.465	139
39.5241	141
39.5833	133
39.6425	146
39.7016	130
39.7608	124
39.82	119
39.8791	142
39.9383	121
39.9975	158
40.0566	115
40.1158	121
40.175	93
40.2341	107
40.2933	115
40.3524	155
40.4116	122
40.4708	150
40.5299	110
40.5891	116
40.6483	127
40.7074	129
40.7666	145
40.8258	115
40.8849	139
40.9441	143
41.0033	169
41.0624	150
41.1216	222
41.1807	199
41.2399	251
41.2991	255
41.3582	249
41.4174	238
41.4766	218
41.5357	208
41.5949	177
41.6541	163
41.7132	156
41.7724	154
41.8316	124
41.8907	135
41.9499	139
42.009	138
42.0682	147
42.1274	122
42.1865	151
42.2457	130
42.3049	161
42.364	146
42.4232	127
42.4824	146
42.5415	133
42.6007	158
42.6598	131
42.719	135
42.7782	112
42.8373	132
42.8965	125
42.9557	148
43.0148	132
43.074	154
43.1332	145
43.1923	143
43.2515	171
43.3107	164
43.3698	178
43.429	229
43.4881	259
43.5473	419
43.6065	893
43.6656	2556
43.7248	4216
43.784	3962
43.8431	2656
43.9023	1627
43.9615	593
44.0206	266
44.0798	226
44.1389	205
44.1981	157
44.2573	166
44.3164	176
44.3756	165
44.4348	161
44.4939	135
44.5531	140
44.6123	157
44.6714	158
44.7306	135
44.7898	129
44.8489	129
44.9081	135
44.9672	113
45.0264	122
45.0856	110
45.1447	136
45.2039	108
45.2631	125
45.3222	118
45.3814	128
45.4406	129
45.4997	128
45.5589	119
45.6181	142
45.6772	120
45.7364	134
45.7955	121
45.8547	117
45.9139	116
45.973	145
46.0322	132
46.0914	122
46.1505	139
46.2097	123
46.2689	145
46.328	119
46.3872	126
46.4463	135
46.5055	128
46.5647	91
46.6238	126
46.683	114
46.7422	113
46.8013	148
46.8605	131
46.9197	120
46.9788	136
47.038	120
47.0972	110
47.1563	110
47.2155	128
47.2746	116
47.3338	126
47.393	130
47.4521	123
47.5113	136
47.5705	111
47.6296	108
47.6888	123
47.748	122
47.8071	139
47.8663	128
47.9255	115
47.9846	111
48.0438	110
48.1029	128
48.1621	115
48.2213	115
48.2804	131
48.3396	107
48.3988	113
48.4579	123
48.5171	115
48.5763	114
48.6354	121
48.6946	111
48.7537	116
48.8129	107
48.8721	105
48.9312	121
48.9904	119
49.0496	119
49.1087	108
49.1679	133
49.2271	128
49.2862	116
49.3454	135
49.4046	136
49.4637	121
49.5229	125
49.582	154
49.6412	135
49.7004	137
49.7595	122
49.8187	164
49.8779	165
49.937	157
49.9962	171
50.0554	207
50.1145	182
50.1737	150
50.2329	144
50.292	165
50.3512	165
50.4103	182
50.4695	187
50.5287	183
50.5878	243
50.647	349
50.7062	627
50.7653	1049
50.8245	1496
50.8837	1691
50.9428	1770
51.002	1312
51.0611	991
51.1203	635
51.1795	375
51.2386	256
51.2978	176
51.357	171
51.4161	161
51.4753	144
51.5345	117
51.5936	127
51.6528	138
51.712	130
51.7711	127
51.8303	143
51.8894	120
51.9486	121
52.0078	125
52.0669	107
52.1261	118
52.1853	114
52.2444	100
52.3036	128
52.3628	124
52.4219	108
52.4811	122
52.5403	138
52.5994	117
52.6586	102
52.7177	108
52.7769	113
52.8361	125
52.8952	99
52.9544	109
53.0136	117
53.0727	127
53.1319	119
53.1911	107
53.2502	124
53.3094	122
53.3685	111
53.4277	116
53.4869	116
53.546	129
53.6052	103
53.6644	84
53.7235	94
53.7827	122
53.8419	122
53.901	127
53.9602	101
54.0194	135
54.0785	118
54.1377	127
54.1968	121
54.256	132
54.3152	149
54.3743	168
54.4335	195
54.4927	205
54.5518	206
54.611	211
54.6702	212
54.7293	230
54.7885	185
54.8477	168
54.9068	160
54.966	143
55.0251	145
55.0843	133
55.1435	110
55.2026	121
55.2618	115
55.321	119
55.3801	118
55.4393	110
55.4985	138
55.5576	139
55.6168	96
55.6759	141
55.7351	98
55.7943	111
55.8534	110
55.9126	119
55.9718	105
56.0309	133
56.0901	100
56.1493	115
56.2084	117
56.2676	112
56.3268	109
56.3859	111
56.4451	122
56.5042	103
56.5634	100
56.6226	129
56.6817	100
56.7409	116
56.8001	111
56.8592	94
56.9184	114
56.9776	112
57.0367	115
57.0959	120
57.155	99
57.2142	94
57.2734	100
57.3325	120
57.3917	112
57.4509	105
57.51	105
57.5692	105
57.6284	95
57.6875	117
57.7467	120
57.8059	126
57.865	123
57.9242	116
57.9833	122
58.0425	110
58.1017	117
58.1608	97
58.22	104
58.2792	109
58.3383	97
58.3975	129
58.4567	128
58.5158	135
58.575	105
58.6342	120
58.6933	130
58.7525	98
58.8116	118
58.8708	94
58.93	116
58.9891	112
59.0483	105
59.1075	101
59.1666	119
59.2258	92
59.285	106
59.3441	125
59.4033	109
59.4624	117
59.5216	105
59.5808	106
59.6399	128
59.6991	98
59.7583	104
59.8174	123
59.8766	126
59.9358	99
59.9949	110
60.0541	112
60.1133	112
60.1724	109
60.2316	87
60.2907	112
60.3499	132
60.4091	117
60.4682	117
60.5274	129
60.5866	100
60.6457	121
60.7049	104
60.7641	96
60.8232	109
60.8824	95
60.9416	114
61.0007	106
61.0599	111
61.119	96
61.1782	100
61.2374	109
61.2965	113
61.3557	102
61.4149	90
61.474	103
61.5332	115
61.5924	104
61.6515	117
61.7107	104
61.7698	131
61.829	103
61.8882	111
61.9473	128
62.0065	114
62.0657	118
62.1248	114
62.184	98
62.2432	100
62.3023	110
62.3615	92
62.4207	117
62.4798	116
62.539	113
62.5981	135
62.6573	104
62.7165	147
62.7756	141
62.8348	156
62.894	154
62.9531	171
63.0123	158
63.0715	172
63.1306	178
63.1898	141
63.249	159
63.3081	160
63.3673	133
63.4264	140
63.4856	129
63.5448	116
63.6039	140
63.6631	123
63.7223	101
63.7814	108
63.8406	129
63.8998	114
63.9589	121
64.0181	105
64.0772	117
64.1364	113
64.1956	123
64.2547	133
64.3139	139
64.3731	105
64.4322	128
64.4914	122
64.5506	147
64.6097	132
64.6689	149
64.7281	135
64.7872	137
64.8464	137
64.9055	123
64.9647	143
65.0239	133
65.083	125
65.1422	124
65.2014	107
65.2605	123
65.3197	111
65.3789	124
65.438	102
65.4972	106
65.5563	105
65.6155	106
65.6747	118
65.7338	102
65.793	106
65.8522	103
65.9113	110
65.9705	98
66.0297	121
66.0888	95
66.148	127
66.2072	114
66.2663	110
66.3255	123
66.3846	105
66.4438	104
66.503	108
66.5621	119
66.6213	133
66.6805	106
66.7396	116
66.7988	99
66.858	120
66.9171	122
66.9763	112
67.0355	122
67.0946	116
67.1538	89
67.2129	108
67.2721	113
67.3313	110
67.3904	101
67.4496	106
67.5088	111
67.5679	114
67.6271	123
67.6863	106
67.7454	105
67.8046	111
67.8637	116
67.9229	98
67.9821	109
68.0412	126
68.1004	106
68.1596	118
68.2187	120
68.2779	113
68.3371	116
68.3962	108
68.4554	101
68.5146	109
68.5737	120
68.6329	88
68.692	106
68.7512	143
68.8104	118
68.8695	114
68.9287	125
68.9879	122
69.047	101
69.1062	123
69.1654	107
69.2245	102
69.2837	105
69.3429	137
69.402	108
69.4612	120
69.5203	102
69.5795	112
69.6387	97
69.6978	106
69.757	108
69.8162	114
69.8753	119
69.9345	104
69.9937	119
70.0528	101
70.112	113
70.1711	115
70.2303	97
70.2895	112
70.3486	142
70.4078	106
70.467	115
70.5261	100
70.5853	115
70.6445	115
70.7036	110
70.7628	101
70.822	101
70.8811	101
70.9403	105
70.9994	93
71.0586	109
71.1178	122
71.1769	108
71.2361	120
71.2953	108
71.3544	106
71.4136	111
71.4728	129
71.5319	97
71.5911	111
71.6503	90
71.7094	106
71.7686	114
71.8277	95
71.8869	115
71.9461	123
72.0052	114
72.0644	97
72.1236	98
72.1827	111
72.2419	110
72.3011	116
72.3602	100
72.4194	112
72.4785	112
72.5377	121
72.5969	130
72.656	130
72.7152	115
72.7744	136
72.8335	104
72.8927	120
72.9519	119
73.011	114
73.0702	112
73.1294	115
73.1885	116
73.2477	114
73.3068	127
73.366	107
73.4252	113
73.4843	118
73.5435	106
73.6027	101
73.6618	109
73.721	126
73.7802	130
73.8393	118
73.8985	124
73.9577	128
74.0168	122
74.076	119
74.1351	130
74.1943	107
74.2535	129
74.3126	136
74.3718	126
74.431	153
74.4901	140
74.5493	211
74.6085	284
74.6676	568
74.7268	946
74.7859	762
74.8451	639
74.9043	707
74.9634	740
75.0226	454
75.0818	331
75.1409	305
75.2001	247
75.2593	173
75.3184	123
75.3776	130
75.4368	121
75.4959	119
75.5551	113
75.6142	102
75.6734	89
75.7326	123
75.7917	110
75.8509	116
75.9101	115
75.9692	114
76.0284	121
76.0876	113
76.1467	129
76.2059	110
76.2651	118
76.3242	131
76.3834	116
76.4425	105
76.5017	121
76.5609	113
76.62	126
76.6792	121
76.7384	126
76.7975	121
76.8567	124
76.9159	107
76.975	108
77.0342	113
77.0933	120
77.1525	110
77.2117	110
77.2708	115
77.33	106
77.3892	132
77.4483	98
77.5075	124
77.5667	132
77.6258	97
77.685	106
77.7442	111
77.8033	122
77.8625	116
77.9216	104
77.9808	100
78.04	125
78.0991	120
78.1583	112
78.2175	126
78.2766	111
78.3358	103
78.395	120
78.4541	108
78.5133	121
78.5725	113
78.6316	107
78.6908	115
78.7499	99
78.8091	108
78.8683	119
78.9274	99
78.9866	116
79.0458	114
79.1049	128
79.1641	86
79.2233	123
79.2824	123
79.3416	104
79.4007	124
79.4599	119
79.5191	112
79.5782	93
79.6374	94
79.6966	108
79.7557	102
79.8149	122
79.8741	113
79.9332	105
79.9924	94
80.0516	142
80.1107	114
80.1699	108
80.229	112
80.2882	121
80.3474	110
80.4065	114
80.4657	115
80.5249	105
80.584	116
80.6432	112
80.7024	105
80.7615	85
80.8207	113
80.8799	106
80.939	107
80.9982	91
81.0573	93
81.1165	92
81.1757	109
81.2348	121
81.294	104
81.3532	116
81.4123	94
81.4715	116
81.5307	112
81.5898	97
81.649	113
81.7081	109
81.7673	110
81.8265	105
81.8856	109
81.9448	109
82.004	104
82.0631	101
82.1223	89
82.1815	109
82.2406	110
82.2998	134
82.359	104
82.4181	99
82.4773	86
82.5364	101
82.5956	95
82.6548	113
82.7139	91
82.7731	122
82.8323	108
82.8914	128
82.9506	105
83.0098	111
83.0689	97
83.1281	105
83.1873	117
83.2464	112
83.3056	83
83.3647	95
83.4239	119
83.4831	113
83.5422	108
83.6014	107
83.6606	108
83.7197	104
83.7789	111
83.8381	104
83.8972	114
83.9564	108
84.0155	102
84.0747	92
84.1339	98
84.193	115
84.2522	96
84.3114	116
84.3705	94
84.4297	100
84.4889	116
84.548	110
84.6072	94
84.6664	119
84.7255	108
84.7847	106
84.8438	109
84.903	101
84.9622	106
85.0213	104
85.0805	106
85.1397	113
85.1988	118
85.258	129
85.3172	99
85.3763	104
85.4355	99
85.4946	116
85.5538	113
85.613	112
85.6721	115
85.7313	112
85.7905	82
85.8496	103
85.9088	114
85.968	117
86.0271	84
86.0863	107
86.1455	109
86.2046	102
86.2638	105
86.3229	115
86.3821	120
86.4413	111
86.5004	111
86.5596	123
86.6188	101
86.6779	102
86.7371	114
86.7963	90
86.8554	124
86.9146	118
86.9738	95
87.0329	119
87.0921	108
87.1512	106
87.2104	105
87.2696	105
87.3287	96
87.3879	93
87.4471	116
87.5062	93
87.5654	91
87.6246	102
87.6837	127
87.7429	116
87.802	123
87.8612	95
87.9204	117
87.9795	115
88.0387	99
88.0979	108
88.157	97
88.2162	111
88.2754	120
88.3345	98
88.3937	93
88.4529	80
88.512	95
88.5712	102
88.6303	116
88.6895	96
88.7487	118
88.8078	120
88.867	101
88.9262	94
88.9853	104
89.0445	89
89.1037	97
89.1628	111
89.222	121
89.2812	111
89.3403	106
89.3995	133
89.4586	92
89.5178	118
89.577	120
89.6361	135
89.6953	110
89.7545	106
89.8136	116
89.8728	124
89.932	113
89.9911	101