File: XRD/310-07.txt
?
20.0     8
20.05916 6
20.11832 1
20.17749 2
20.23665 7
20.29582 1
20.35498 6
20.41414 10
20.47331 6
20.53247 7
20.59164 13
20.65080 11
20.70996 7
20.76913 5
20.82829 8
20.88746 2
20.94662 9
21.00578 13
21.06495 3
21.12411 3
21.18328 5
21.24244 5
21.30161 5
21.36077 10
21.41993 10
21.47910 11
21.53826 13
21.59743 8
21.65659 6
21.71575 2
21.77492 13
21.83408 18
21.89325 3
21.95241 9
22.01158 17
22.07074 10
22.12990 12
22.18907 9
22.24823 6
22.3074  9
22.36656 5
22.42572 12
22.48489 8
22.54405 11
22.60322 15
22.66238 12
22.72154 10
22.78071 3
22.83987 7
22.89904 16
22.95820 17
23.01736 14
23.07653 9
23.13569 16
23.19486 8
23.25402 12
23.31318 9
23.37235 11
23.43151 22
23.49068 12
23.54984 11
23.60900 17
23.66817 7
23.72733 11
23.78650 29
23.84566 40
23.90483 63
23.96399 88
24.02315 99
24.08232 122
24.14148 79
24.20065 33
24.25981 27
24.31897 21
24.37814 12
24.43730 16
24.49647 26
24.55563 15
24.61479 9
24.67396 25
24.73312 22
24.79229 12
24.85145 24
24.91062 21
24.96978 19
25.02894 18
25.08811 12
25.14727 25
25.20644 15
25.26560 16
25.32476 19
25.38393 17
25.44309 9
25.50226 16
25.56142 12
25.62058 16
25.67975 19
25.73891 18
25.79808 12
25.85724 10
25.91640 15
25.97557 11
26.03473 15
26.09390 8
26.15306 3
26.21223 15
26.27139 14
26.33055 19
26.38972 23
26.44888 16
26.50805 17
26.56721 15
26.62637 18
26.68554 12
26.74470 23
26.80387 13
26.86303 6
26.92219 19
26.98136 12
27.04052 17
27.09969 14
27.15885 11
27.21801 10
27.27718 13
27.33634 20
27.39551 23
27.45467 29
27.51384 4
27.57300 14
27.63216 11
27.69133 12
27.75049 23
27.80966 13
27.86882 9
27.92798 23
27.98715 13
28.04631 28
28.10548 25
28.16464 11
28.22380 21
28.28297 18
28.34213 13
28.4013  16
28.46046 8
28.51963 17
28.57879 21
28.63795 18
28.69712 22
28.75628 11
28.81545 18
28.87461 12
28.93377 5
28.99294 21
29.05210 12
29.11127 5
29.17043 18
29.22959 21
29.28876 11
29.34792 13
29.40709 2
29.46625 15
29.52541 10
29.58458 6
29.64374 19
29.70291 19
29.76207 14
29.82123 15
29.88040 34
29.93956 28
29.99873 44
30.05789 66
30.11706 56
30.17622 48
30.23538 22
30.29455 12
30.35371 19
30.41288 5
30.47204 11
30.53120 20
30.59037 2
30.64953 11
30.7087  10
30.76786 9
30.82702 15
30.88619 7
30.94535 6
31.00452 8
31.06368 15
31.12285 9
31.18201 13
31.24117 9
31.30034 10
31.35950 12
31.41867 9
31.47783 7
31.53699 16
31.59616 11
31.65532 7
31.71449 10
31.77365 5
31.83281 3
31.89198 16
31.95114 12
32.01031 6
32.06947 10
32.12863 7
32.18780 15
32.24696 13
32.30613 6
32.36529 3
32.42446 4
32.48362 17
32.54278 6
32.60195 8
32.66111 15
32.72028 15
32.77944 18
32.83860 95
32.89777 182
32.95693 225
33.01610 324
33.07526 417
33.13443 313
33.19359 105
33.25275 23
33.31192 17
33.37108 19
33.43024 13
33.48941 9
33.54857 7
33.60774 8
33.66690 16
33.72607 8
33.78523 4
33.84439 5
33.90356 7
33.96272 19
34.02188 11
34.08105 9
34.14021 9
34.19938 7
34.25854 4
34.31771 13
34.37687 10
34.43603 4
34.49520 7
34.55436 7
34.61353 5
34.67269 15
34.73186 3
34.79102 1
34.85018 3
34.90935 19
34.96851 10
35.02767 12
35.08684 20
35.14600 26
35.20517 67
35.26433 139
35.32350 275
35.38266 401
35.44183 522
35.50099 560
35.56015 448
35.61932 242
35.67848 89
35.73764 32
35.79681 18
35.85597 23
35.91514 22
35.97430 13
36.03347 12
36.09263 18
36.15179 22
36.21096 13
36.27012 2
36.32928 0
36.38845 13
36.44761 8
36.50678 11
36.56594 12
36.62511 8
36.68427 15
36.74343 29
36.80260 84
36.86176 201
36.92092 391
36.98009 707
37.03926 1052
37.09842 1227
37.15758 1115
37.21675 682
37.27591 339
37.33507 123
37.39424 39
37.45340 16
37.51257 7
37.57173 8
37.63090 12
37.69006 8
37.74922 6
37.80839 14
37.86755 11
37.92672 5
37.98588 11
38.04504 5
38.10421 9
38.16337 9
38.22254 7
38.28170 3
38.34087 7
38.40003 17
38.45919 10
38.51836 3
38.57752 12
38.63668 16
38.69585 13
38.75501 27
38.81418 69
38.87334 169
38.93251 381
38.99167 738
39.05083 1096
39.11000 1357
39.16916 1297
39.22832 1056
39.28749 702
39.34665 247
39.40582 79
39.46498 69
39.52415 30
39.58331 16
39.64247 24
39.70164 30
39.76080 8
39.81997 19
39.87913 9
39.93830 0
39.99746 7
40.05662 14
40.11579 23
40.17495 5
40.23411 5
40.29328 14
40.35244 19
40.41161 52
40.47077 97
40.52994 191
40.58910 282
40.64827 355
40.70743 430
40.76659 385
40.82576 225
40.88492 116
40.94408 69
41.00325 33
41.06241 17
41.12158 18
41.18074 22
41.23991 15
41.29907 18
41.35823 20
41.4174  12
41.47656 12
41.53572 9
41.59489 12
41.65405 12
41.71322 8
41.77238 15
41.83155 8
41.89071 10
41.94987 10
42.00904 5
42.06820 15
42.12737 20
42.18653 12
42.24570 12
42.30486 19
42.36402 20
42.42319 23
42.48235 24
42.54151 16
42.60068 13
42.65984 8
42.71901 6
42.77817 26
42.83734 21
42.89650 13
42.95566 24
43.01483 45
43.07399 62
43.13316 62
43.19232 51
43.25148 72
43.31065 85
43.36981 147
43.42898 234
43.48814 247
43.54731 226
43.60647 201
43.66563 142
43.7248  70
43.78396 31
43.84312 32
43.90229 34
43.96145 19
44.02062 13
44.07978 17
44.13895 21
44.19811 17
44.25727 21
44.31644 28
44.37560 10
44.43477 7
44.49393 12
44.55310 15
44.61226 11
44.67142 16
44.73059 15
44.78975 13
44.84891 15
44.90808 10
44.96724 12
45.02641 13
45.08557 17
45.14474 13
45.20390 5
45.26306 15
45.32223 13
45.38139 19
45.44055 9
45.49972 3
45.55888 20
45.61805 16
45.67721 5
45.73638 8
45.79554 13
45.85471 20
45.91387 23
45.97303 10
46.0322  12
46.09136 18
46.15052 14
46.20969 12
46.26885 17
46.32802 16
46.38718 11
46.44635 10
46.50551 13
46.56467 13
46.62384 15
46.68300 13
46.74217 12
46.80133 10
46.8605  12
46.91966 11
46.97882 17
47.03799 11
47.09715 10
47.15631 10
47.21548 17
47.27464 19
47.33381 16
47.39297 20
47.45214 25
47.51130 12
47.57046 6
47.62963 13
47.68879 11
47.74795 14
47.80712 14
47.86628 10
47.92545 14
47.98461 9
48.04378 12
48.10294 21
48.16210 14
48.22127 10
48.28043 5
48.3396  17
48.39876 16
48.45792 9
48.51709 16
48.57625 18
48.63542 13
48.69458 7
48.75375 10
48.81291 14
48.87207 22
48.93124 19
48.99040 16
49.04956 23
49.10873 35
49.1679  38
49.22706 78
49.28622 123
49.34539 131
49.40455 108
49.46371 52
49.52288 17
49.58204 17
49.64121 17
49.70037 9
49.75954 8
49.81870 20
49.87786 22
49.93703 19
49.99619 24
50.05535 18
50.11452 6
50.17368 23
50.23285 29
50.29201 28
50.35118 16
50.41034 19
50.46950 35
50.52867 52
50.58783 84
50.64699 109
50.70616 114
50.76532 93
50.82449 73
50.88365 52
50.94282 28
51.00198 18
51.06115 22
51.12031 21
51.17947 17
51.23864 8
51.29780 19
51.35696 18
51.41613 9
51.47529 6
51.53446 12
51.59362 13
51.65279 10
51.71195 6
51.77111 12
51.83028 21
51.88944 13
51.94861 14
52.00777 10
52.06694 10
52.12610 14
52.18526 16
52.24443 8
52.30359 3
52.36275 8
52.42192 14
52.48108 12
52.54025 8
52.59941 7
52.65858 9
52.71774 4
52.77690 12
52.83607 15
52.89523 16
52.95439 17
53.01356 12
53.07272 16
53.13189 18
53.19105 19
53.25022 9
53.30938 24
53.36854 39
53.42771 66
53.48687 73
53.54604 62
53.60520 50
53.66436 48
53.72353 47
53.78269 78
53.84186 114
53.90102 136
53.96019 171
54.01935 144
54.07851 68
54.13768 26
54.19684 18
54.25601 13
54.31517 16
54.37434 16
54.43350 10
54.49266 13
54.55183 21
54.61099 19
54.67015 18
54.72932 23
54.78848 21
54.84765 26
54.90681 14
54.96598 7
55.02514 6
55.08430 9
55.14347 14
55.20263 15
55.26179 19
55.32096 14
55.38012 8
55.43929 19
55.49845 26
55.55762 18
55.61678 15
55.67594 9
55.73511 10
55.79427 15
55.85343 17
55.91260 20
55.97176 24
56.03093 19
56.09009 16
56.14926 16
56.20842 23
56.26759 21
56.32675 9
56.38591 21
56.44508 25
56.50424 23
56.56341 35
56.62257 51
56.68174 67
56.74090 87
56.80006 164
56.85923 313
56.91839 543
56.97755 800
57.03672 1014
57.09588 990
57.15505 814
57.21421 535
57.27338 305
57.33254 179
57.39170 152
57.45087 154
57.51003 152
57.56919 98
57.62836 41
57.68752 19
57.74669 13
57.80585 18
57.86502 21
57.92418 16
57.98334 20
58.04251 15
58.10167 9
58.16083 20
58.22000 21
58.27916 15
58.33833 12
58.39749 14
58.45666 23
58.51582 19
58.57498 13
58.63415 18
58.69331 19
58.75248 13
58.81164 6
58.87081 13
58.92997 6
58.98914 8
59.04830 17
59.10746 24
59.16663 15
59.22579 11
59.28495 16
59.34412 20
59.40328 13
59.46245 11
59.52161 15
59.58078 5
59.63994 16
59.69910 18
59.75827 10
59.81743 12
59.87659 15
59.93576 23
59.99492 8
60.05409 12
60.11325 19
60.17242 14
60.23158 14
60.29074 12
60.34991 4
60.40907 9
60.46823 18
60.52740 18
60.58656 11
60.64573 10
60.70489 16
60.76406 16
60.82322 23
60.88238 13
60.94155 9
61.00071 11
61.05987 10
61.11904 9
61.17820 13
61.23737 17
61.29653 14
61.35570 12
61.41486 9
61.47403 15
61.53319 22
61.59235 16
61.65152 13
61.71068 11
61.76985 11
61.82901 25
61.88818 38
61.94734 48
62.00650 72
62.06567 100
62.12483 150
62.18399 232
62.24316 287
62.30232 270
62.36149 221
62.42065 153
62.47982 111
62.53898 74
62.59814 80
62.65731 92
62.71647 86
62.77563 78
62.83480 63
62.89396 39
62.95313 36
63.01229 17
63.07146 30
63.13062 16
63.18978 21
63.24895 12
63.30811 17
63.36727 19
63.42644 17
63.48560 16
63.54477 12
63.60393 11
63.66310 19
63.72226 28
63.78142 35
63.84059 47
63.89975 41
63.95892 24
64.01808 22
64.07724 19
64.13641 16
64.19558 10
64.25474 17
64.31390 4
64.37307 10
64.43223 9
64.49140 9
64.55056 9
64.60972 4
64.66889 7
64.72805 4
64.78721 4
64.84638 5
64.90554 8
64.96471 20
65.02387 11
65.08303 14
65.14220 14
65.20137 4
65.26052 13
65.31969 12
65.37886 5
65.43802 3
65.49718 0
65.55635 4
65.61551 8
65.67468 14
65.73384 13
65.79300 5
65.85217 6
65.91133 7
65.97049 16
66.02966 6
66.08882 8
66.14799 3
66.20716 2
66.26631 3
66.32548 6
66.38465 9
66.44381 5
66.50297 0
66.56214 3
66.62130 7
66.68047 0
66.73963 6
66.79879 7
66.85796 12
66.91713 15
66.97628 5
67.03545 7
67.09462 7
67.15378 8
67.21294 9
67.27211 5
67.33127 3
67.39044 2
67.4496  7
67.50876 4
67.56793 5
67.62709 4
67.68625 4
67.74542 5
67.80458 5
67.86375 6
67.92291 5
67.98207 12
68.04124 15
68.10041 7
68.15956 2
68.21873 0
68.27790 5
68.33706 9
68.39622 11
68.45539 11
68.51455 12
68.57372 8
68.63288 8
68.69204 6
68.75121 2
68.81037 6
68.86954 2
68.92870 4
68.98786 5
69.04703 14
69.10620 10
69.16535 6
69.22452 2
69.28369 15
69.34285 11
69.40201 16
69.46118 15
69.52034 14
69.57951 10
69.63867 7
69.69783 8
69.75700 6
69.81617 5
69.87532 4
69.93449 10
69.99366 9
70.05282 14
70.11198 13
70.17115 15
70.23031 13
70.28948 11
70.34864 14
70.40780 8
70.46697 15
70.52613 7
70.58529 6
70.64446 9
70.70362 13
70.76279 12
70.82195 4
70.88111 10
70.94028 10
70.99945 15
71.05861 19
71.11777 19
71.17694 14
71.23610 7
71.29527 16
71.35443 12
71.41359 35
71.47276 45
71.53192 45
71.59108 39
71.65025 80
71.70941 158
71.76858 237
71.82774 254
71.88690 225
71.94607 120
72.00524 57
72.0644  22
72.12356 0
72.18273 21
72.24189 33
72.30105 33
72.36022 20
72.41938 15
72.47855 14
72.53771 22
72.59687 20
72.65604 18
72.71521 17
72.77436 24
72.83353 18
72.8927  12
72.95186 13
73.01102 16
73.07019 12
73.12935 17
73.18852 10
73.24768 18
73.30684 20
73.36601 14
73.42517 28
73.48434 17
73.54350 20
73.60266 20
73.66183 13
73.72100 16
73.78015 31
73.83932 27
73.89849 36
73.95765 44
74.01681 83
74.07598 109
74.13514 134
74.19431 152
74.25347 133
74.31263 121
74.37180 66
74.43096 59
74.49012 94
74.54929 140
74.60845 172
74.66762 137
74.72678 109
74.78595 62
74.84511 35
74.90428 40
74.96344 30
75.02260 25
75.08177 37
75.14093 26
75.20009 38
75.25926 35
75.31842 34
75.37759 57
75.43675 37
75.49591 40
75.55508 27
75.61425 8
75.67340 8
75.73257 11
75.79174 6
75.85090 15
75.91007 27
75.96923 18
76.02839 19
76.08756 12
76.14672 19
76.20588 16
76.26505 12
76.32421 17
76.38338 0
76.44254 10
76.50170 12
76.56087 14
76.62004 9
76.67919 15
76.73836 18
76.79753 13
76.85669 14
76.91585 9
76.97502 27
77.03418 15
77.09335 5
77.15251 13
77.21167 13
77.27084 19
77.33000 17
77.38916 28
77.44833 17
77.5075  18
77.56666 24
77.62582 11
77.68499 6
77.74415 6
77.80332 1
77.86248 17
77.92164 23
77.98081 13
78.03997 2
78.09913 11
78.15830 6
78.21746 12
78.27663 14
78.3358  11
78.39495 20
78.45412 19
78.51329 27
78.57245 39
78.63161 43
78.69078 43
78.74994 34
78.80911 42
78.86827 48
78.92743 97
78.98660 174
79.04576 250
79.10492 327
79.16409 353
79.22325 354
79.28242 272
79.34158 179
79.40074 104
79.45991 47
79.51908 34
79.57823 14
79.63740 16
79.69657 17
79.75573 11
79.81489 10
79.87406 2
79.93322 6
79.99239 10
80.05155 4
80.11071 8
80.16988 7
80.22905 9
80.28820 12
80.34737 13
80.40654 9
80.46570 24
80.52486 13
80.58403 10
80.64319 10
80.70236 2
80.76152 5
80.82068 10
80.87985 8
80.93901 20
80.99818 13
81.05734 3
81.11650 2
81.17567 4
81.23484 7
81.29399 9
81.35316 0
81.41233 7
81.47149 7
81.53065 0
81.58982 5
81.64898 19
81.70815 12
81.76731 5
81.82647 0
81.88564 0
81.94480 4
82.00396 7
82.06313 4
82.12229 11
82.18146 17
82.24062 7
82.29978 8
82.35895 10
82.41812 8
82.47728 3
82.53644 10
82.59561 11
82.65477 8
82.71393 13
82.77310 13
82.83226 11
82.89143 31
82.95059 16
83.00975 11
83.06892 12
83.12809 6
83.18725 10
83.24641 8
83.30558 4
83.36474 14
83.42391 15
83.48307 9
83.54223 14
83.60140 6
83.66056 11
83.71972 13
83.77889 17
83.83805 20
83.89722 22
83.95638 28
84.01554 37
84.07471 45
84.13388 63
84.19303 63
84.25220 57
84.31137 54
84.37053 49
84.42969 43
84.48886 41
84.54802 24
84.60719 26
84.66635 49
84.72551 47
84.78468 42
84.84384 34
84.90300 19
84.96217 9
85.02133 15
85.08050 16
85.13966 8
85.19883 17
85.25799 15
85.31716 12
85.37632 9
85.43548 17
85.49465 18
85.55381 13
85.61298 18
85.67214 8
85.73130 12
85.79047 8
85.84964 7
85.90879 8
85.96796 6
86.02713 7
86.08629 13
86.14545 11
86.20462 13
86.26378 20
86.32295 17
86.38211 8
86.44127 6
86.50044 16
86.55960 16
86.61876 9
86.67793 19
86.73709 30
86.79626 8
86.85542 20
86.91458 32
86.97375 16
87.03292 14
87.09207 31
87.15124 13
87.21041 4
87.26957 23
87.32873 11
87.38790 11
87.44706 17
87.50623 13
87.56539 5
87.62455 22
87.68372 14
87.74288 10
87.80204 21
87.86121 23
87.92038 21
87.97954 27
88.03871 26
88.09787 36
88.15703 45
88.21620 60
88.27536 83
88.33452 88
88.39369 89
88.45285 60
88.51202 47
88.57118 39
88.63034 17
88.68951 9
88.74868 24
88.80783 17
88.86700 5
88.92617 7
88.98533 6
89.04449 11
89.10366 7
89.16282 9
89.22199 11
89.28115 15
89.34031 14
89.39948 19
89.45864 11
89.51780 21
89.57697 31
89.63613 28
89.69530 30
89.75446 69
89.81362 86
89.87279 92
89.93196 123
89.99111 110