File: XRD/310-07.uxd
;content of D:\data\result\mecham\???\20231225-89741\310-07.raw - (Diffrac Plus V4 file)
_FILEVERSION = 3
_SAMPLE
_+SAMPLE
_USER = Lab Manager
_GONIOMETER_CODE = 21
_STAGE_CODE = 7
; Goniometer : D8 theta/theta, stage : Chi drive
_SAMPLE_CHANGER_CODE = 0
_ATTACHMENTS_CODE = 0
_GONIOMETER_RADIUS = 280
_MONOCHROMATOR = 0
; Incident beam monochromator : None
_BETA_FILTER = N
_ANALYZER_CODE = 0
; Received beam analyzer : None
_DATEMEASURED = 25-Dec-2023 10:04:43
_RUNTIME = 11.19268
_WL_UNIT = A
_WL1 = 1.5406
_WL2 = 1.54439
_WL3 = 1.39222
_WLRATIO = 0.5
_ANODE = Cu
_V4_INF_USER = Lab Manager
_V4_INF_CREATOR = V5Converter
_V4_INF_CREATOR_VERSION = 4.4.16.0

; Data for range 1
_DRIVE = COUPLED
_STEPTIME = 57.6
_STEPSIZE = 0.019721
_STEPMODE = C
_START = 20
_THETA = 10
_2THETA = 20
_KHI = 0
_PHI = 0
_DETECTORSLIT = out
_AUX1 = 0
_TIMESTARTED = 0
_KV = 40
_MA = 40
_RANGE_WL = 1.5406
_3DPLANE = 0
_V4_PSD2THETA = 9999
_V4_PSDCHANNEL1 = 0
_V4_PSDAPERTURE = 2.839876
_V4_PSDTYPE = 5
_V4_PSDFIXED = 0
_V4_COUNTERS_MASK = 1
_V4_DRIVES_MASK = 0
_V4_ENCODERS_MASK = 0
_2THETACOUNTS = 1
; 2THETA	Cnt2_D1
20	153
20.0592	150
20.1183	130
20.1775	119
20.2367	145
20.2958	118
20.355	144
20.4141	143
20.4733	134
20.5325	154
20.5916	145
20.6508	156
20.71	152
20.7691	143
20.8283	160
20.8875	125
20.9466	142
21.0058	156
21.065	143
21.1241	117
21.1833	132
21.2424	135
21.3016	144
21.3608	135
21.4199	142
21.4791	120
21.5383	152
21.5974	151
21.6566	127
21.7158	125
21.7749	141
21.8341	152
21.8933	141
21.9524	118
22.0116	128
22.0707	153
22.1299	144
22.1891	151
22.2482	111
22.3074	136
22.3666	121
22.4257	142
22.4849	141
22.5441	125
22.6032	152
22.6624	124
22.7215	120
22.7807	119
22.8399	141
22.899	158
22.9582	134
23.0174	137
23.0765	144
23.1357	136
23.1949	133
23.254	124
23.3132	118
23.3724	130
23.4315	146
23.4907	139
23.5498	120
23.609	140
23.6682	129
23.7273	130
23.7865	167
23.8457	152
23.9048	186
23.964	242
24.0232	240
24.0823	273
24.1415	250
24.2006	200
24.2598	160
24.319	128
24.3781	142
24.4373	140
24.4965	118
24.5556	126
24.6148	121
24.674	125
24.7331	140
24.7923	146
24.8515	110
24.9106	139
24.9698	142
25.0289	145
25.0881	128
25.1473	133
25.2064	133
25.2656	146
25.3248	119
25.3839	124
25.4431	123
25.5023	147
25.5614	119
25.6206	139
25.6798	130
25.7389	139
25.7981	131
25.8572	118
25.9164	122
25.9756	140
26.0347	120
26.0939	116
26.1531	110
26.2122	114
26.2714	109
26.3306	129
26.3897	139
26.4489	133
26.5081	147
26.5672	113
26.6264	124
26.6855	107
26.7447	124
26.8039	121
26.863	97
26.9222	137
26.9814	132
27.0405	114
27.0997	127
27.1589	120
27.218	125
27.2772	131
27.3363	154
27.3955	132
27.4547	122
27.5138	130
27.573	129
27.6322	119
27.6913	130
27.7505	118
27.8097	135
27.8688	116
27.928	135
27.9872	118
28.0463	144
28.1055	129
28.1646	123
28.2238	131
28.283	138
28.3421	138
28.4013	144
28.4605	121
28.5196	136
28.5788	140
28.638	127
28.6971	146
28.7563	144
28.8154	136
28.8746	119
28.9338	118
28.9929	115
29.0521	126
29.1113	101
29.1704	131
29.2296	144
29.2888	119
29.3479	114
29.4071	119
29.4663	123
29.5254	125
29.5846	121
29.6437	116
29.7029	125
29.7621	143
29.8212	139
29.8804	163
29.9396	146
29.9987	158
30.0579	196
30.1171	204
30.1762	199
30.2354	169
30.2946	134
30.3537	147
30.4129	130
30.472	124
30.5312	146
30.5904	124
30.6495	129
30.7087	94
30.7679	139
30.827	139
30.8862	126
30.9454	106
31.0045	120
31.0637	140
31.1228	123
31.182	130
31.2412	143
31.3003	122
31.3595	137
31.4187	131
31.4778	110
31.537	115
31.5962	142
31.6553	111
31.7145	133
31.7737	110
31.8328	115
31.892	140
31.9511	135
32.0103	123
32.0695	121
32.1286	126
32.1878	131
32.247	123
32.3061	120
32.3653	114
32.4245	120
32.4836	145
32.5428	106
32.602	118
32.6611	129
32.7203	139
32.7794	159
32.8386	196
32.8978	324
32.9569	391
33.0161	505
33.0753	696
33.1344	633
33.1936	394
33.2528	243
33.3119	167
33.3711	150
33.4302	123
33.4894	130
33.5486	121
33.6077	114
33.6669	132
33.7261	123
33.7852	109
33.8444	108
33.9036	123
33.9627	141
34.0219	120
34.0811	121
34.1402	97
34.1994	130
34.2585	113
34.3177	151
34.3769	105
34.436	116
34.4952	132
34.5544	123
34.6135	125
34.6727	126
34.7319	123
34.791	124
34.8502	121
34.9094	155
34.9685	133
35.0277	145
35.0868	146
35.146	183
35.2052	205
35.2643	306
35.3235	452
35.3827	630
35.4418	803
35.501	850
35.5602	894
35.6193	639
35.6785	368
35.7376	228
35.7968	146
35.856	163
35.9151	158
35.9743	146
36.0335	141
36.0926	156
36.1518	149
36.211	141
36.2701	137
36.3293	136
36.3885	138
36.4476	126
36.5068	150
36.5659	134
36.6251	152
36.6843	139
36.7434	150
36.8026	200
36.8618	373
36.9209	600
36.9801	966
37.0393	1476
37.0984	1849
37.1576	1792
37.2168	1415
37.2759	952
37.3351	522
37.3942	280
37.4534	152
37.5126	147
37.5717	147
37.6309	148
37.6901	134
37.7492	140
37.8084	154
37.8676	131
37.9267	148
37.9859	134
38.045	125
38.1042	147
38.1634	136
38.2225	155
38.2817	128
38.3409	152
38.4	149
38.4592	136
38.5184	142
38.5775	156
38.6367	149
38.6959	154
38.755	156
38.8142	195
38.8733	326
38.9325	529
38.9917	961
39.0508	1451
39.11	1933
39.1692	1988
39.2283	1907
39.2875	1451
39.3467	896
39.4058	506
39.465	282
39.5241	187
39.5833	169
39.6425	161
39.7016	160
39.7608	153
39.82	134
39.8791	133
39.9383	132
39.9975	118
40.0566	141
40.1158	155
40.175	123
40.2341	133
40.2933	130
40.3524	130
40.4116	195
40.4708	225
40.5299	355
40.5891	462
40.6483	609
40.7074	670
40.7666	691
40.8258	578
40.8849	403
40.9441	279
41.0033	219
41.0624	154
41.1216	123
41.1807	149
41.2399	171
41.2991	141
41.3582	148
41.4174	116
41.4766	139
41.5357	145
41.5949	144
41.6541	132
41.7132	121
41.7724	138
41.8316	127
41.8907	147
41.9499	133
42.009	110
42.0682	116
42.1274	131
42.1865	151
42.2457	136
42.3049	137
42.364	145
42.4232	139
42.4824	117
42.5415	140
42.6007	157
42.6598	106
42.719	130
42.7782	146
42.8373	125
42.8965	140
42.9557	120
43.0148	161
43.074	183
43.1332	215
43.1923	201
43.2515	215
43.3107	231
43.3698	288
43.429	408
43.4881	491
43.5473	459
43.6065	428
43.6656	352
43.7248	288
43.784	203
43.8431	165
43.9023	145
43.9615	144
44.0206	144
44.0798	123
44.1389	147
44.1981	138
44.2573	122
44.3164	145
44.3756	113
44.4348	135
44.4939	111
44.5531	133
44.6123	119
44.6714	120
44.7306	129
44.7898	120
44.8489	121
44.9081	128
44.9672	134
45.0264	119
45.0856	107
45.1447	125
45.2039	113
45.2631	136
45.3222	119
45.3814	136
45.4406	125
45.4997	115
45.5589	134
45.6181	110
45.6772	114
45.7364	114
45.7955	125
45.8547	131
45.9139	108
45.973	132
46.0322	111
46.0914	120
46.1505	136
46.2097	122
46.2689	114
46.328	124
46.3872	130
46.4463	120
46.5055	122
46.5647	115
46.6238	117
46.683	114
46.7422	136
46.8013	115
46.8605	106
46.9197	125
46.9788	114
47.038	124
47.0972	121
47.1563	114
47.2155	127
47.2746	119
47.3338	143
47.393	120
47.4521	103
47.5113	113
47.5705	115
47.6296	123
47.6888	122
47.748	115
47.8071	118
47.8663	136
47.9255	123
47.9846	124
48.0438	118
48.1029	124
48.1621	113
48.2213	136
48.2804	105
48.3396	118
48.3988	131
48.4579	106
48.5171	113
48.5763	120
48.6354	133
48.6946	95
48.7537	150
48.8129	108
48.8721	134
48.9312	115
48.9904	126
49.0496	143
49.1087	141
49.1679	149
49.2271	188
49.2862	244
49.3454	270
49.4046	271
49.4637	217
49.5229	158
49.582	164
49.6412	127
49.7004	121
49.7595	110
49.8187	118
49.8779	125
49.937	128
49.9962	142
50.0554	135
50.1145	121
50.1737	138
50.2329	140
50.292	143
50.3512	125
50.4103	138
50.4695	140
50.5287	164
50.5878	196
50.647	235
50.7062	254
50.7653	241
50.8245	240
50.8837	203
50.9428	181
51.002	161
51.0611	138
51.1203	139
51.1795	121
51.2386	125
51.2978	152
51.357	131
51.4161	131
51.4753	119
51.5345	116
51.5936	120
51.6528	119
51.712	122
51.7711	127
51.8303	139
51.8894	126
51.9486	115
52.0078	127
52.0669	136
52.1261	131
52.1853	129
52.2444	119
52.3036	115
52.3628	120
52.4219	121
52.4811	132
52.5403	124
52.5994	119
52.6586	113
52.7177	104
52.7769	134
52.8361	130
52.8952	115
52.9544	129
53.0136	104
53.0727	144
53.1319	141
53.1911	125
53.2502	138
53.3094	150
53.3685	150
53.4277	179
53.4869	197
53.546	199
53.6052	195
53.6644	185
53.7235	158
53.7827	239
53.8419	240
53.901	263
53.9602	335
54.0194	299
54.0785	250
54.1377	240
54.1968	148
54.256	137
54.3152	133
54.3743	127
54.4335	111
54.4927	127
54.5518	132
54.611	137
54.6702	122
54.7293	157
54.7885	142
54.8477	146
54.9068	135
54.966	126
55.0251	110
55.0843	127
55.1435	134
55.2026	118
55.2618	142
55.321	118
55.3801	128
55.4393	131
55.4985	149
55.5576	146
55.6168	129
55.6759	120
55.7351	119
55.7943	136
55.8534	129
55.9126	138
55.9718	136
56.0309	135
56.0901	150
56.1493	147
56.2084	142
56.2676	122
56.3268	137
56.3859	112
56.4451	142
56.5042	138
56.5634	150
56.6226	163
56.6817	193
56.7409	219
56.8001	295
56.8592	457
56.9184	676
56.9776	1005
57.0367	1355
57.0959	1436
57.155	1371
57.2142	1121
57.2734	881
57.3325	636
57.3917	487
57.4509	386
57.51	346
57.5692	277
57.6284	225
57.6875	198
57.7467	150
57.8059	130
57.865	121
57.9242	135
57.9833	121
58.0425	136
58.1017	115
58.1608	120
58.22	129
58.2792	121
58.3383	128
58.3975	132
58.4567	126
58.5158	118
58.575	102
58.6342	109
58.6933	129
58.7525	123
58.8116	114
58.8708	129
58.93	110
58.9891	96
59.0483	127
59.1075	131
59.1666	123
59.2258	127
59.285	143
59.3441	108
59.4033	121
59.4624	133
59.5216	137
59.5808	127
59.6399	116
59.6991	113
59.7583	109
59.8174	119
59.8766	119
59.9358	133
59.9949	113
60.0541	132
60.1133	136
60.1724	119
60.2316	130
60.2907	99
60.3499	112
60.4091	139
60.4682	111
60.5274	127
60.5866	117
60.6457	138
60.7049	127
60.7641	114
60.8232	143
60.8824	108
60.9416	130
61.0007	107
61.0599	138
61.119	107
61.1782	124
61.2374	133
61.2965	125
61.3557	131
61.4149	136
61.474	117
61.5332	144
61.5924	129
61.6515	124
61.7107	122
61.7698	146
61.829	131
61.8882	152
61.9473	160
62.0065	196
62.0657	229
62.1248	257
62.184	380
62.2432	439
62.3023	469
62.3615	509
62.4207	424
62.4798	364
62.539	270
62.5981	281
62.6573	269
62.7165	236
62.7756	236
62.8348	190
62.894	185
62.9531	182
63.0123	151
63.0715	172
63.1306	138
63.1898	150
63.249	125
63.3081	152
63.3673	125
63.4264	109
63.4856	144
63.5448	125
63.6039	127
63.6631	140
63.7223	140
63.7814	161
63.8406	163
63.8998	175
63.9589	148
64.0181	180
64.0772	161
64.1364	139
64.1956	126
64.2547	127
64.3139	131
64.3731	127
64.4322	114
64.4914	123
64.5506	138
64.6097	112
64.6689	125
64.7281	108
64.7872	108
64.8464	127
64.9055	132
64.9647	141
65.0239	130
65.083	135
65.1422	142
65.2014	127
65.2605	127
65.3197	138
65.3789	120
65.438	127
65.4972	118
65.5563	130
65.6155	115
65.6747	137
65.7338	133
65.793	137
65.8522	125
65.9113	116
65.9705	139
66.0297	124
66.0888	126
66.148	116
66.2072	117
66.2663	128
66.3255	138
66.3846	138
66.4438	120
66.503	96
66.5621	125
66.6213	133
66.6805	121
66.7396	112
66.7988	114
66.858	137
66.9171	138
66.9763	124
67.0355	143
67.0946	125
67.1538	123
67.2129	137
67.2721	115
67.3313	129
67.3904	105
67.4496	137
67.5088	100
67.5679	108
67.6271	123
67.6863	134
67.7454	118
67.8046	120
67.8637	142
67.9229	110
67.9821	135
68.0412	137
68.1004	126
68.1596	128
68.2187	117
68.2779	114
68.3371	118
68.3962	147
68.4554	132
68.5146	137
68.5737	133
68.6329	126
68.692	151
68.7512	128
68.8104	120
68.8695	121
68.9287	123
68.9879	132
69.047	144
69.1062	131
69.1654	136
69.2245	103
69.2837	137
69.3429	110
69.402	135
69.4612	122
69.5203	147
69.5795	118
69.6387	130
69.6978	133
69.757	141
69.8162	127
69.8753	127
69.9345	146
69.9937	135
70.0528	148
70.112	132
70.1711	149
70.2303	149
70.2895	148
70.3486	145
70.4078	128
70.467	149
70.5261	129
70.5853	122
70.6445	143
70.7036	138
70.7628	136
70.822	134
70.8811	129
70.9403	141
70.9994	125
71.0586	138
71.1178	139
71.1769	137
71.2361	125
71.2953	130
71.3544	148
71.4136	156
71.4728	150
71.5319	171
71.5911	168
71.6503	223
71.7094	313
71.7686	353
71.8277	412
71.8869	438
71.9461	348
72.0052	304
72.0644	250
72.1236	178
72.1827	185
72.2419	175
72.3011	176
72.3602	158
72.4194	162
72.4785	152
72.5377	147
72.5969	117
72.656	145
72.7152	140
72.7744	160
72.8335	148
72.8927	149
72.9519	143
73.011	147
73.0702	148
73.1294	150
73.1885	138
73.2477	137
73.3068	135
73.366	144
73.4252	158
73.4843	156
73.5435	158
73.6027	163
73.6618	146
73.721	145
73.7802	147
73.8393	137
73.8985	172
73.9577	167
74.0168	235
74.076	264
74.1351	253
74.1943	313
74.2535	305
74.3126	311
74.3718	254
74.431	247
74.4901	275
74.5493	290
74.6085	317
74.6676	323
74.7268	283
74.7859	276
74.8451	227
74.9043	234
74.9634	197
75.0226	171
75.0818	191
75.1409	177
75.2001	168
75.2593	176
75.3184	183
75.3776	165
75.4368	177
75.4959	182
75.5551	175
75.6142	161
75.6734	158
75.7326	135
75.7917	133
75.8509	148
75.9101	169
75.9692	159
76.0284	155
76.0876	145
76.1467	168
76.2059	170
76.2651	139
76.3242	140
76.3834	146
76.4425	132
76.5017	130
76.5609	172
76.62	134
76.6792	152
76.7384	156
76.7975	132
76.8567	150
76.9159	121
76.975	198
77.0342	127
77.0933	153
77.1525	146
77.2117	131
77.2708	168
77.33	149
77.3892	161
77.4483	155
77.5075	155
77.5667	141
77.6258	164
77.685	151
77.7442	143
77.8033	137
77.8625	153
77.9216	156
77.9808	159
78.04	129
78.0991	145
78.1583	141
78.2175	132
78.2766	142
78.3358	133
78.395	190
78.4541	181
78.5133	164
78.5725	197
78.6316	202
78.6908	197
78.7499	188
78.8091	190
78.8683	218
78.9274	256
78.9866	319
79.0458	422
79.1049	514
79.1641	542
79.2233	621
79.2824	536
79.3416	449
79.4007	410
79.4599	345
79.5191	301
79.5782	253
79.6374	207
79.6966	196
79.7557	155
79.8149	139
79.8741	149
79.9332	163
79.9924	155
80.0516	142
80.1107	163
80.1699	160
80.229	166
80.2882	153
80.3474	145
80.4065	124
80.4657	169
80.5249	152
80.584	153
80.6432	158
80.7024	148
80.7615	148
80.8207	151
80.8799	144
80.939	178
80.9982	135
81.0573	142
81.1165	150
81.1757	161
81.2348	161
81.294	148
81.3532	129
81.4123	146
81.4715	141
81.5307	147
81.5898	150
81.649	168
81.7081	138
81.7673	136
81.8265	133
81.8856	135
81.9448	139
82.004	145
82.0631	146
82.1223	162
82.1815	165
82.2406	144
82.2998	135
82.359	153
82.4181	163
82.4773	124
82.5364	149
82.5956	144
82.6548	160
82.7139	143
82.7731	169
82.8323	159
82.8914	188
82.9506	146
83.0098	137
83.0689	170
83.1281	158
83.1873	142
83.2464	131
83.3056	149
83.3647	149
83.4239	148
83.4831	133
83.5422	145
83.6014	136
83.6606	173
83.7197	124
83.7789	158
83.8381	153
83.8972	152
83.9564	174
84.0155	178
84.0747	190
84.1339	205
84.193	235
84.2522	230
84.3114	218
84.3705	211
84.4297	208
84.4889	198
84.548	197
84.6072	198
84.6664	212
84.7255	198
84.7847	163
84.8438	164
84.903	168
84.9622	166
85.0213	175
85.0805	178
85.1397	154
85.1988	161
85.258	143
85.3172	146
85.3763	141
85.4355	142
85.4946	153
85.5538	169
85.613	151
85.6721	136
85.7313	173
85.7905	148
85.8496	152
85.9088	147
85.968	139
86.0271	133
86.0863	144
86.1455	136
86.2046	150
86.2638	123
86.3229	152
86.3821	141
86.4413	138
86.5004	160
86.5596	161
86.6188	156
86.6779	152
86.7371	162
86.7963	137
86.8554	164
86.9146	181
86.9738	162
87.0329	156
87.0921	160
87.1512	155
87.2104	154
87.2696	151
87.3287	152
87.3879	150
87.4471	136
87.5062	141
87.5654	144
87.6246	161
87.6837	128
87.7429	158
87.802	158
87.8612	159
87.9204	172
87.9795	151
88.0387	159
88.0979	186
88.157	202
88.2162	222
88.2754	234
88.3345	220
88.3937	251
88.4529	238
88.512	221
88.5712	200
88.6303	181
88.6895	191
88.7487	198
88.8078	160
88.867	126
88.9262	144
88.9853	140
89.0445	163
89.1037	125
89.1628	140
89.222	156
89.2812	151
89.3403	128
89.3995	188
89.4586	141
89.5178	162
89.577	159
89.6361	181
89.6953	177
89.7545	215
89.8136	234
89.8728	221
89.932	255
89.9911	221