File: XRD/600-02.uxd
;content of D:\data\result\mecham\???\20231225-89741\600-02.raw - (Diffrac Plus V4 file)
_FILEVERSION = 3
_SAMPLE
_+SAMPLE
_USER = Lab Manager
_GONIOMETER_CODE = 21
_STAGE_CODE = 7
; Goniometer : D8 theta/theta, stage : Chi drive
_SAMPLE_CHANGER_CODE = 0
_ATTACHMENTS_CODE = 0
_GONIOMETER_RADIUS = 280
_MONOCHROMATOR = 0
; Incident beam monochromator : None
_BETA_FILTER = N
_ANALYZER_CODE = 0
; Received beam analyzer : None
_DATEMEASURED = 25-Dec-2023 10:24:13
_RUNTIME = 11.18869
_WL_UNIT = A
_WL1 = 1.5406
_WL2 = 1.54439
_WL3 = 1.39222
_WLRATIO = 0.5
_ANODE = Cu
_V4_INF_USER = Lab Manager
_V4_INF_CREATOR = V5Converter
_V4_INF_CREATOR_VERSION = 4.4.16.0

; Data for range 1
_DRIVE = COUPLED
_STEPTIME = 57.6
_STEPSIZE = 0.019721
_STEPMODE = C
_START = 20
_THETA = 10
_2THETA = 20
_KHI = 0
_PHI = 0
_DETECTORSLIT = out
_AUX1 = 0
_TIMESTARTED = 0
_KV = 40
_MA = 40
_RANGE_WL = 1.5406
_3DPLANE = 0
_V4_PSD2THETA = 9999
_V4_PSDCHANNEL1 = 0
_V4_PSDAPERTURE = 2.839876
_V4_PSDTYPE = 5
_V4_PSDFIXED = 0
_V4_COUNTERS_MASK = 1
_V4_DRIVES_MASK = 0
_V4_ENCODERS_MASK = 0
_2THETACOUNTS = 1
; 2THETA	Cnt2_D1
20	551
20.0592	531
20.1183	579
20.1775	558
20.2367	551
20.2958	530
20.355	553
20.4141	500
20.4733	534
20.5325	538
20.5916	557
20.6508	488
20.71	533
20.7691	560
20.8283	563
20.8875	582
20.9466	541
21.0058	535
21.065	503
21.1241	536
21.1833	544
21.2424	566
21.3016	555
21.3608	574
21.4199	511
21.4791	535
21.5383	558
21.5974	552
21.6566	544
21.7158	531
21.7749	557
21.8341	546
21.8933	517
21.9524	571
22.0116	546
22.0707	595
22.1299	548
22.1891	523
22.2482	563
22.3074	487
22.3666	570
22.4257	520
22.4849	526
22.5441	574
22.6032	527
22.6624	563
22.7215	545
22.7807	528
22.8399	553
22.899	533
22.9582	556
23.0174	550
23.0765	520
23.1357	539
23.1949	495
23.254	551
23.3132	531
23.3724	575
23.4315	575
23.4907	579
23.5498	499
23.609	539
23.6682	477
23.7273	544
23.7865	519
23.8457	586
23.9048	595
23.964	533
24.0232	549
24.0823	570
24.1415	579
24.2006	617
24.2598	639
24.319	696
24.3781	724
24.4373	745
24.4965	654
24.5556	650
24.6148	595
24.674	632
24.7331	583
24.7923	590
24.8515	561
24.9106	602
24.9698	519
25.0289	515
25.0881	564
25.1473	584
25.2064	563
25.2656	553
25.3248	592
25.3839	536
25.4431	596
25.5023	576
25.5614	587
25.6206	517
25.6798	542
25.7389	599
25.7981	581
25.8572	519
25.9164	508
25.9756	530
26.0347	544
26.0939	552
26.1531	545
26.2122	559
26.2714	524
26.3306	541
26.3897	548
26.4489	540
26.5081	543
26.5672	530
26.6264	581
26.6855	586
26.7447	561
26.8039	570
26.863	585
26.9222	592
26.9814	561
27.0405	546
27.0997	518
27.1589	533
27.218	553
27.2772	520
27.3363	497
27.3955	543
27.4547	548
27.5138	520
27.573	477
27.6322	529
27.6913	538
27.7505	551
27.8097	546
27.8688	562
27.928	527
27.9872	560
28.0463	574
28.1055	570
28.1646	547
28.2238	573
28.283	601
28.3421	553
28.4013	513
28.4605	574
28.5196	524
28.5788	534
28.638	522
28.6971	637
28.7563	546
28.8154	505
28.8746	528
28.9338	514
28.9929	558
29.0521	554
29.1113	575
29.1704	532
29.2296	583
29.2888	501
29.3479	542
29.4071	536
29.4663	488
29.5254	539
29.5846	580
29.6437	518
29.7029	557
29.7621	540
29.8212	573
29.8804	518
29.9396	564
29.9987	584
30.0579	603
30.1171	553
30.1762	556
30.2354	611
30.2946	582
30.3537	585
30.4129	581
30.472	529
30.5312	561
30.5904	562
30.6495	557
30.7087	588
30.7679	538
30.827	529
30.8862	553
30.9454	569
31.0045	559
31.0637	544
31.1228	557
31.182	552
31.2412	557
31.3003	543
31.3595	576
31.4187	581
31.4778	556
31.537	525
31.5962	552
31.6553	545
31.7145	553
31.7737	547
31.8328	578
31.892	560
31.9511	556
32.0103	559
32.0695	541
32.1286	573
32.1878	575
32.247	568
32.3061	550
32.3653	591
32.4245	548
32.4836	584
32.5428	572
32.602	576
32.6611	521
32.7203	586
32.7794	546
32.8386	548
32.8978	561
32.9569	525
33.0161	572
33.0753	595
33.1344	589
33.1936	625
33.2528	601
33.3119	600
33.3711	713
33.4302	768
33.4894	789
33.5486	732
33.6077	656
33.6669	635
33.7261	602
33.7852	631
33.8444	576
33.9036	592
33.9627	588
34.0219	565
34.0811	535
34.1402	542
34.1994	553
34.2585	578
34.3177	548
34.3769	602
34.436	515
34.4952	576
34.5544	583
34.6135	585
34.6727	572
34.7319	526
34.791	561
34.8502	577
34.9094	549
34.9685	522
35.0277	587
35.0868	608
35.146	562
35.2052	588
35.2643	573
35.3235	592
35.3827	574
35.4418	581
35.501	603
35.5602	618
35.6193	607
35.6785	644
35.7376	646
35.7968	641
35.856	696
35.9151	652
35.9743	677
36.0335	662
36.0926	584
36.1518	629
36.211	631
36.2701	611
36.3293	558
36.3885	572
36.4476	546
36.5068	540
36.5659	552
36.6251	540
36.6843	547
36.7434	581
36.8026	576
36.8618	545
36.9209	540
36.9801	569
37.0393	619
37.0984	531
37.1576	596
37.2168	645
37.2759	582
37.3351	611
37.3942	568
37.4534	565
37.5126	572
37.5717	548
37.6309	513
37.6901	543
37.7492	583
37.8084	561
37.8676	569
37.9267	523
37.9859	514
38.045	541
38.1042	565
38.1634	519
38.2225	561
38.2817	545
38.3409	524
38.4	524
38.4592	517
38.5184	520
38.5775	562
38.6367	560
38.6959	587
38.755	518
38.8142	470
38.8733	506
38.9325	552
38.9917	555
39.0508	584
39.11	554
39.1692	526
39.2283	511
39.2875	553
39.3467	551
39.4058	541
39.465	557
39.5241	571
39.5833	572
39.6425	556
39.7016	542
39.7608	515
39.82	520
39.8791	536
39.9383	542
39.9975	552
40.0566	532
40.1158	572
40.175	507
40.2341	580
40.2933	559
40.3524	520
40.4116	512
40.4708	528
40.5299	529
40.5891	503
40.6483	546
40.7074	587
40.7666	515
40.8258	532
40.8849	555
40.9441	538
41.0033	534
41.0624	531
41.1216	554
41.1807	569
41.2399	626
41.2991	569
41.3582	584
41.4174	544
41.4766	568
41.5357	551
41.5949	580
41.6541	524
41.7132	551
41.7724	553
41.8316	554
41.8907	542
41.9499	521
42.009	586
42.0682	557
42.1274	559
42.1865	572
42.2457	558
42.3049	592
42.364	572
42.4232	521
42.4824	506
42.5415	550
42.6007	587
42.6598	585
42.719	592
42.7782	551
42.8373	626
42.8965	582
42.9557	636
43.0148	579
43.074	584
43.1332	629
43.1923	674
43.2515	672
43.3107	688
43.3698	660
43.429	655
43.4881	594
43.5473	606
43.6065	581
43.6656	610
43.7248	592
43.784	681
43.8431	734
43.9023	880
43.9615	1156
44.0206	2354
44.0798	6535
44.1389	13580
44.1981	13494
44.2573	9463
44.3164	6254
44.3756	2214
44.4348	1103
44.4939	792
44.5531	710
44.6123	656
44.6714	665
44.7306	606
44.7898	668
44.8489	612
44.9081	609
44.9672	607
45.0264	514
45.0856	588
45.1447	591
45.2039	580
45.2631	582
45.3222	609
45.3814	578
45.4406	585
45.4997	591
45.5589	584
45.6181	575
45.6772	562
45.7364	595
45.7955	573
45.8547	545
45.9139	608
45.973	598
46.0322	560
46.0914	563
46.1505	562
46.2097	536
46.2689	545
46.328	562
46.3872	555
46.4463	565
46.5055	567
46.5647	568
46.6238	532
46.683	553
46.7422	540
46.8013	567
46.8605	525
46.9197	547
46.9788	576
47.038	549
47.0972	588
47.1563	569
47.2155	535
47.2746	583
47.3338	567
47.393	554
47.4521	504
47.5113	518
47.5705	548
47.6296	553
47.6888	567
47.748	554
47.8071	579
47.8663	549
47.9255	528
47.9846	531
48.0438	550
48.1029	533
48.1621	561
48.2213	565
48.2804	524
48.3396	548
48.3988	527
48.4579	501
48.5171	536
48.5763	541
48.6354	534
48.6946	522
48.7537	564
48.8129	550
48.8721	551
48.9312	550
48.9904	481
49.0496	534
49.1087	525
49.1679	544
49.2271	541
49.2862	552
49.3454	575
49.4046	492
49.4637	526
49.5229	573
49.582	512
49.6412	536
49.7004	540
49.7595	560
49.8187	559
49.8779	545
49.937	567
49.9962	551
50.0554	631
50.1145	525
50.1737	533
50.2329	566
50.292	534
50.3512	576
50.4103	594
50.4695	565
50.5287	588
50.5878	533
50.647	535
50.7062	544
50.7653	536
50.8245	560
50.8837	542
50.9428	580
51.002	536
51.0611	615
51.1203	604
51.1795	675
51.2386	855
51.2978	1288
51.357	2708
51.4161	3578
51.4753	4423
51.5345	3593
51.5936	2509
51.6528	1862
51.712	986
51.7711	735
51.8303	623
51.8894	571
51.9486	597
52.0078	531
52.0669	526
52.1261	522
52.1853	564
52.2444	529
52.3036	564
52.3628	536
52.4219	546
52.4811	564
52.5403	526
52.5994	538
52.6586	546
52.7177	493
52.7769	532
52.8361	547
52.8952	535
52.9544	537
53.0136	496
53.0727	559
53.1319	539
53.1911	503
53.2502	518
53.3094	532
53.3685	529
53.4277	508
53.4869	533
53.546	524
53.6052	537
53.6644	521
53.7235	528
53.7827	510
53.8419	505
53.901	532
53.9602	530
54.0194	511
54.0785	530
54.1377	536
54.1968	584
54.256	508
54.3152	558
54.3743	550
54.4335	597
54.4927	556
54.5518	564
54.611	530
54.6702	564
54.7293	557
54.7885	563
54.8477	577
54.9068	600
54.966	558
55.0251	532
55.0843	542
55.1435	512
55.2026	544
55.2618	536
55.321	492
55.3801	540
55.4393	528
55.4985	476
55.5576	509
55.6168	478
55.6759	539
55.7351	522
55.7943	512
55.8534	509
55.9126	547
55.9718	550
56.0309	528
56.0901	531
56.1493	508
56.2084	515
56.2676	493
56.3268	497
56.3859	479
56.4451	525
56.5042	531
56.5634	481
56.6226	515
56.6817	505
56.7409	508
56.8001	480
56.8592	546
56.9184	512
56.9776	497
57.0367	495
57.0959	512
57.155	510
57.2142	468
57.2734	520
57.3325	568
57.3917	507
57.4509	474
57.51	506
57.5692	530
57.6284	497
57.6875	551
57.7467	498
57.8059	517
57.865	509
57.9242	535
57.9833	491
58.0425	521
58.1017	480
58.1608	503
58.22	506
58.2792	517
58.3383	460
58.3975	520
58.4567	518
58.5158	498
58.575	513
58.6342	491
58.6933	497
58.7525	463
58.8116	491
58.8708	490
58.93	506
58.9891	483
59.0483	471
59.1075	492
59.1666	528
59.2258	529
59.285	473
59.3441	468
59.4033	520
59.4624	506
59.5216	488
59.5808	505
59.6399	477
59.6991	461
59.7583	485
59.8174	491
59.8766	498
59.9358	509
59.9949	476
60.0541	528
60.1133	506
60.1724	497
60.2316	500
60.2907	520
60.3499	519
60.4091	498
60.4682	500
60.5274	435
60.5866	514
60.6457	466
60.7049	495
60.7641	457
60.8232	496
60.8824	507
60.9416	508
61.0007	468
61.0599	482
61.119	514
61.1782	484
61.2374	510
61.2965	503
61.3557	476
61.4149	506
61.474	507
61.5332	514
61.5924	513
61.6515	476
61.7107	517
61.7698	500
61.829	517
61.8882	492
61.9473	490
62.0065	471
62.0657	473
62.1248	491
62.184	508
62.2432	536
62.3023	493
62.3615	536
62.4207	495
62.4798	484
62.539	481
62.5981	481
62.6573	512
62.7165	528
62.7756	494
62.8348	528
62.894	492
62.9531	545
63.0123	521
63.0715	553
63.1306	574
63.1898	498
63.249	462
63.3081	517
63.3673	517
63.4264	449
63.4856	451
63.5448	516
63.6039	478
63.6631	492
63.7223	486
63.7814	516
63.8406	439
63.8998	466
63.9589	490
64.0181	468
64.0772	523
64.1364	455
64.1956	487
64.2547	475
64.3139	480
64.3731	489
64.4322	495
64.4914	490
64.5506	482
64.6097	532
64.6689	511
64.7281	467
64.7872	436
64.8464	499
64.9055	491
64.9647	489
65.0239	497
65.083	483
65.1422	505
65.2014	487
65.2605	500
65.3197	461
65.3789	503
65.438	457
65.4972	491
65.5563	466
65.6155	445
65.6747	479
65.7338	457
65.793	485
65.8522	460
65.9113	489
65.9705	447
66.0297	462
66.0888	457
66.148	503
66.2072	495
66.2663	462
66.3255	451
66.3846	459
66.4438	503
66.503	448
66.5621	462
66.6213	472
66.6805	445
66.7396	442
66.7988	492
66.858	488
66.9171	496
66.9763	456
67.0355	458
67.0946	475
67.1538	473
67.2129	449
67.2721	488
67.3313	456
67.3904	463
67.4496	454
67.5088	423
67.5679	455
67.6271	487
67.6863	453
67.7454	469
67.8046	513
67.8637	490
67.9229	447
67.9821	472
68.0412	471
68.1004	456
68.1596	449
68.2187	455
68.2779	460
68.3371	433
68.3962	458
68.4554	439
68.5146	489
68.5737	451
68.6329	498
68.692	457
68.7512	495
68.8104	481
68.8695	477
68.9287	481
68.9879	459
69.047	469
69.1062	479
69.1654	398
69.2245	468
69.2837	489
69.3429	441
69.402	429
69.4612	440
69.5203	443
69.5795	437
69.6387	467
69.6978	505
69.757	449
69.8162	484
69.8753	423
69.9345	443
69.9937	460
70.0528	475
70.112	475
70.1711	466
70.2303	450
70.2895	424
70.3486	440
70.4078	462
70.467	464
70.5261	469
70.5853	419
70.6445	471
70.7036	457
70.7628	497
70.822	481
70.8811	412
70.9403	441
70.9994	462
71.0586	446
71.1178	486
71.1769	456
71.2361	473
71.2953	457
71.3544	462
71.4136	415
71.4728	471
71.5319	455
71.5911	450
71.6503	426
71.7094	426
71.7686	422
71.8277	410
71.8869	451
71.9461	467
72.0052	455
72.0644	439
72.1236	444
72.1827	453
72.2419	483
72.3011	454
72.3602	452
72.4194	411
72.4785	469
72.5377	421
72.5969	486
72.656	461
72.7152	450
72.7744	450
72.8335	429
72.8927	404
72.9519	431
73.011	472
73.0702	486
73.1294	458
73.1885	403
73.2477	447
73.3068	405
73.366	434
73.4252	474
73.4843	483
73.5435	460
73.6027	432
73.6618	432
73.721	418
73.7802	471
73.8393	486
73.8985	448
73.9577	462
74.0168	445
74.076	454
74.1351	444
74.1943	463
74.2535	468
74.3126	461
74.3718	444
74.431	438
74.4901	452
74.5493	434
74.6085	454
74.6676	483
74.7268	450
74.7859	408
74.8451	460
74.9043	470
74.9634	458
75.0226	449
75.0818	487
75.1409	473
75.2001	461
75.2593	494
75.3184	481
75.3776	489
75.4368	552
75.4959	621
75.5551	927
75.6142	1800
75.6734	1365
75.7326	1395
75.7917	1617
75.8509	1356
75.9101	1034
75.9692	943
76.0284	829
76.0876	562
76.1467	474
76.2059	486
76.2651	452
76.3242	464
76.3834	470
76.4425	439
76.5017	474
76.5609	434
76.62	429
76.6792	456
76.7384	414
76.7975	430
76.8567	450
76.9159	429
76.975	433
77.0342	420
77.0933	413
77.1525	432
77.2117	468
77.2708	451
77.33	441
77.3892	438
77.4483	466
77.5075	424
77.5667	463
77.6258	406
77.685	456
77.7442	421
77.8033	459
77.8625	418
77.9216	448
77.9808	437
78.04	423
78.0991	428
78.1583	416
78.2175	448
78.2766	428
78.3358	415
78.395	462
78.4541	438
78.5133	407
78.5725	443
78.6316	443
78.6908	416
78.7499	402
78.8091	417
78.8683	435
78.9274	432
78.9866	424
79.0458	405
79.1049	452
79.1641	449
79.2233	416
79.2824	414
79.3416	473
79.4007	458
79.4599	430
79.5191	438
79.5782	429
79.6374	412
79.6966	480
79.7557	418
79.8149	445
79.8741	407
79.9332	398
79.9924	443
80.0516	421
80.1107	394
80.1699	450
80.229	444
80.2882	418
80.3474	417
80.4065	407
80.4657	419
80.5249	440
80.584	440
80.6432	453
80.7024	424
80.7615	409
80.8207	382
80.8799	420
80.939	406
80.9982	415
81.0573	421
81.1165	415
81.1757	407
81.2348	425
81.294	395
81.3532	408
81.4123	456
81.4715	414
81.5307	430
81.5898	388
81.649	402
81.7081	404
81.7673	368
81.8265	428
81.8856	359
81.9448	414
82.004	383
82.0631	371
82.1223	417
82.1815	417
82.2406	385
82.2998	390
82.359	394
82.4181	438
82.4773	452
82.5364	413
82.5956	417
82.6548	420
82.7139	395
82.7731	412
82.8323	410
82.8914	411
82.9506	442
83.0098	381
83.0689	406
83.1281	415
83.1873	414
83.2464	431
83.3056	431
83.3647	400
83.4239	453
83.4831	423
83.5422	393
83.6014	396
83.6606	393
83.7197	408
83.7789	365
83.8381	420
83.8972	406
83.9564	456
84.0155	447
84.0747	416
84.1339	392
84.193	425
84.2522	409
84.3114	446
84.3705	457
84.4297	385
84.4889	407
84.548	431
84.6072	395
84.6664	421
84.7255	391
84.7847	392
84.8438	379
84.903	409
84.9622	397
85.0213	452
85.0805	442
85.1397	424
85.1988	394
85.258	408
85.3172	405
85.3763	412
85.4355	391
85.4946	399
85.5538	426
85.613	400
85.6721	377
85.7313	369
85.7905	392
85.8496	417
85.9088	360
85.968	424
86.0271	419
86.0863	391
86.1455	416
86.2046	389
86.2638	357
86.3229	404
86.3821	385
86.4413	376
86.5004	397
86.5596	395
86.6188	385
86.6779	361
86.7371	401
86.7963	408
86.8554	392
86.9146	392
86.9738	411
87.0329	426
87.0921	424
87.1512	386
87.2104	363
87.2696	375
87.3287	396
87.3879	377
87.4471	400
87.5062	392
87.5654	381
87.6246	393
87.6837	355
87.7429	371
87.802	381
87.8612	409
87.9204	363
87.9795	400
88.0387	373
88.0979	399
88.157	377
88.2162	391
88.2754	392
88.3345	400
88.3937	413
88.4529	377
88.512	384
88.5712	392
88.6303	391
88.6895	413
88.7487	391
88.8078	389
88.867	415
88.9262	408
88.9853	400
89.0445	427
89.1037	370
89.1628	379
89.222	415
89.2812	365
89.3403	397
89.3995	413
89.4586	402
89.5178	438
89.577	365
89.6361	364
89.6953	367
89.7545	395
89.8136	355
89.8728	397
89.932	412
89.9911	394