File: XRD/600-07.txt
?
20.0     6
20.05916 6
20.11832 13
20.17749 2
20.23665 7
20.29582 6
20.35498 23
20.41414 22
20.47331 18
20.53247 15
20.59164 9
20.65080 2
20.70996 11
20.76913 12
20.82829 7
20.88746 17
20.94662 17
21.00578 7
21.06495 24
21.12411 22
21.18328 15
21.24244 16
21.30161 20
21.36077 16
21.41993 19
21.47910 12
21.53826 9
21.59743 10
21.65659 1
21.71575 23
21.77492 20
21.83408 4
21.89325 20
21.95241 8
22.01158 11
22.07074 3
22.12990 11
22.18907 15
22.24823 16
22.3074  17
22.36656 21
22.42572 22
22.48489 11
22.54405 11
22.60322 30
22.66238 8
22.72154 12
22.78071 12
22.83987 10
22.89904 18
22.95820 24
23.01736 10
23.07653 16
23.13569 30
23.19486 27
23.25402 16
23.31318 15
23.37235 15
23.43151 2
23.49068 17
23.54984 20
23.60900 22
23.66817 5
23.72733 17
23.78650 23
23.84566 7
23.90483 8
23.96399 17
24.02315 15
24.08232 30
24.14148 15
24.20065 29
24.25981 27
24.31897 19
24.37814 32
24.43730 35
24.49647 57
24.55563 48
24.61479 50
24.67396 20
24.73312 26
24.79229 10
24.85145 18
24.91062 11
24.96978 25
25.02894 14
25.08811 26
25.14727 22
25.20644 20
25.26560 11
25.32476 16
25.38393 27
25.44309 22
25.50226 11
25.56142 25
25.62058 14
25.67975 12
25.73891 33
25.79808 20
25.85724 4
25.91640 18
25.97557 25
26.03473 17
26.09390 12
26.15306 19
26.21223 28
26.27139 20
26.33055 1
26.38972 22
26.44888 16
26.50805 18
26.56721 20
26.62637 7
26.68554 22
26.74470 13
26.80387 12
26.86303 15
26.92219 18
26.98136 18
27.04052 26
27.09969 19
27.15885 10
27.21801 12
27.27718 19
27.33634 18
27.39551 10
27.45467 15
27.51384 14
27.57300 28
27.63216 22
27.69133 7
27.75049 23
27.80966 11
27.86882 11
27.92798 6
27.98715 19
28.04631 43
28.10548 14
28.16464 21
28.22380 24
28.28297 2
28.34213 16
28.4013  7
28.46046 6
28.51963 30
28.57879 20
28.63795 11
28.69712 18
28.75628 7
28.81545 3
28.87461 30
28.93377 17
28.99294 11
29.05210 32
29.11127 18
29.17043 11
29.22959 19
29.28876 27
29.34792 26
29.40709 21
29.46625 11
29.52541 30
29.58458 13
29.64374 25
29.70291 26
29.76207 16
29.82123 10
29.88040 40
29.93956 22
29.99873 39
30.05789 68
30.11706 117
30.17622 191
30.23538 329
30.29455 399
30.35371 187
30.41288 69
30.47204 17
30.53120 35
30.59037 34
30.64953 21
30.7087  19
30.76786 15
30.82702 19
30.88619 16
30.94535 33
31.00452 21
31.06368 8
31.12285 15
31.18201 14
31.24117 22
31.30034 12
31.35950 18
31.41867 21
31.47783 16
31.53699 15
31.59616 8
31.65532 16
31.71449 7
31.77365 19
31.83281 34
31.89198 6
31.95114 26
32.01031 26
32.06947 11
32.12863 20
32.18780 11
32.24696 17
32.30613 23
32.36529 13
32.42446 0
32.48362 22
32.54278 17
32.60195 17
32.66111 19
32.72028 34
32.77944 16
32.83860 27
32.89777 32
32.95693 9
33.01610 17
33.07526 8
33.13443 27
33.19359 39
33.25275 11
33.31192 27
33.37108 39
33.43024 8
33.48941 58
33.54857 107
33.60774 77
33.66690 82
33.72607 76
33.78523 72
33.84439 34
33.90356 31
33.96272 33
34.02188 19
34.08105 28
34.14021 26
34.19938 39
34.25854 38
34.31771 8
34.37687 23
34.43603 26
34.49520 33
34.55436 33
34.61353 24
34.67269 35
34.73186 28
34.79102 16
34.85018 32
34.90935 28
34.96851 37
35.02767 26
35.08684 19
35.14600 26
35.20517 29
35.26433 50
35.32350 65
35.38266 105
35.44183 232
35.50099 390
35.56015 626
35.61932 973
35.67848 787
35.73764 306
35.79681 132
35.85597 68
35.91514 48
35.97430 58
36.03347 66
36.09263 67
36.15179 92
36.21096 100
36.27012 72
36.32928 87
36.38845 90
36.44761 36
36.50678 26
36.56594 26
36.62511 56
36.68427 38
36.74343 7
36.80260 32
36.86176 53
36.92092 47
36.98009 66
37.03926 136
37.09842 269
37.15758 689
37.21675 1550
37.27591 2450
37.33507 1751
37.39424 551
37.45340 201
37.51257 121
37.57173 50
37.63090 40
37.69006 40
37.74922 24
37.80839 29
37.86755 29
37.92672 23
37.98588 24
38.04504 21
38.10421 14
38.16337 11
38.22254 20
38.28170 16
38.34087 12
38.40003 28
38.45919 37
38.51836 7
38.57752 7
38.63668 38
38.69585 10
38.75501 11
38.81418 33
38.87334 22
38.93251 12
38.99167 4
39.05083 11
39.11000 26
39.16916 10
39.22832 17
39.28749 33
39.34665 12
39.40582 0
39.46498 24
39.52415 16
39.58331 0
39.64247 19
39.70164 19
39.76080 17
39.81997 17
39.87913 18
39.93830 11
39.99746 9
40.05662 8
40.11579 17
40.17495 0
40.23411 0
40.29328 15
40.35244 16
40.41161 0
40.47077 0
40.52994 25
40.58910 28
40.64827 0
40.70743 0
40.76659 3
40.82576 0
40.88492 0
40.94408 7
41.00325 12
41.06241 0
41.12158 4
41.18074 1
41.23991 0
41.29907 8
41.35823 19
41.4174  32
41.47656 37
41.53572 29
41.59489 1
41.65405 18
41.71322 31
41.77238 8
41.83155 4
41.89071 2
41.94987 5
42.00904 10
42.06820 0
42.12737 0
42.18653 6
42.24570 6
42.30486 1
42.36402 0
42.42319 30
42.48235 9
42.54151 7
42.60068 13
42.65984 25
42.71901 16
42.77817 2
42.83734 14
42.89650 24
42.95566 22
43.01483 35
43.07399 72
43.13316 116
43.19232 176
43.25148 344
43.31065 542
43.36981 399
43.42898 138
43.48814 44
43.54731 20
43.60647 28
43.66563 28
43.7248  28
43.78396 44
43.84312 36
43.90229 56
43.96145 87
44.02062 266
44.07978 808
44.13895 3479
44.19811 3768
44.25727 1720
44.31644 1081
44.37560 679
44.43477 533
44.49393 525
44.55310 497
44.61226 216
44.67142 75
44.73059 75
44.78975 52
44.84891 0
44.90808 12
44.96724 39
45.02641 28
45.08557 30
45.14474 18
45.20390 0
45.26306 5
45.32223 12
45.38139 18
45.44055 16
45.49972 14
45.55888 33
45.61805 20
45.67721 0
45.73638 16
45.79554 9
45.85471 3
45.91387 0
45.97303 26
46.0322  27
46.09136 0
46.15052 2
46.20969 16
46.26885 26
46.32802 10
46.38718 8
46.44635 8
46.50551 7
46.56467 24
46.62384 35
46.68300 4
46.74217 3
46.80133 11
46.8605  18
46.91966 19
46.97882 9
47.03799 10
47.09715 20
47.15631 26
47.21548 25
47.27464 5
47.33381 10
47.39297 38
47.45214 30
47.51130 8
47.57046 12
47.62963 0
47.68879 25
47.74795 42
47.80712 20
47.86628 2
47.92545 20
47.98461 32
48.04378 16
48.10294 10
48.16210 30
48.22127 22
48.28043 13
48.3396  27
48.39876 27
48.45792 24
48.51709 22
48.57625 26
48.63542 20
48.69458 10
48.75375 10
48.81291 14
48.87207 22
48.93124 10
48.99040 0
49.04956 26
49.10873 35
49.1679  24
49.22706 14
49.28622 23
49.34539 23
49.40455 14
49.46371 23
49.52288 11
49.58204 15
49.64121 30
49.70037 37
49.75954 24
49.81870 34
49.87786 29
49.93703 19
49.99619 16
50.05535 21
50.11452 43
50.17368 49
50.23285 24
50.29201 14
50.35118 45
50.41034 36
50.46950 23
50.52867 29
50.58783 44
50.64699 23
50.70616 9
50.76532 20
50.82449 20
50.88365 13
50.94282 21
51.00198 34
51.06115 33
51.12031 6
51.17947 28
51.23864 62
51.29780 140
51.35696 329
51.41613 786
51.47529 799
51.53446 433
51.59362 307
51.65279 253
51.71195 242
51.77111 256
51.83028 278
51.88944 239
51.94861 148
52.00777 74
52.06694 53
52.12610 51
52.18526 30
52.24443 22
52.30359 13
52.36275 0
52.42192 9
52.48108 34
52.54025 28
52.59941 16
52.65858 6
52.71774 9
52.77690 9
52.83607 22
52.89523 13
52.95439 5
53.01356 5
53.07272 26
53.13189 25
53.19105 28
53.25022 3
53.30938 14
53.36854 37
53.42771 48
53.48687 40
53.54604 37
53.60520 63
53.66436 103
53.72353 102
53.78269 72
53.84186 32
53.90102 22
53.96019 13
54.01935 20
54.07851 31
54.13768 17
54.19684 8
54.25601 1
54.31517 19
54.37434 33
54.43350 27
54.49266 27
54.55183 20
54.61099 21
54.67015 43
54.72932 59
54.78848 50
54.84765 44
54.90681 55
54.96598 71
55.02514 49
55.08430 23
55.14347 11
55.20263 18
55.26179 28
55.32096 9
55.38012 22
55.43929 12
55.49845 20
55.55762 20
55.61678 23
55.67594 3
55.73511 10
55.79427 25
55.85343 17
55.91260 15
55.97176 13
56.03093 17
56.09009 12
56.14926 17
56.20842 26
56.26759 11
56.32675 14
56.38591 23
56.44508 31
56.50424 24
56.56341 5
56.62257 15
56.68174 39
56.74090 44
56.80006 38
56.85923 40
56.91839 52
56.97755 65
57.03672 74
57.09588 125
57.15505 174
57.21421 211
57.27338 190
57.33254 138
57.39170 70
57.45087 37
57.51003 40
57.56919 50
57.62836 50
57.68752 34
57.74669 8
57.80585 20
57.86502 26
57.92418 29
57.98334 12
58.04251 1
58.10167 14
58.16083 24
58.22000 44
58.27916 39
58.33833 24
58.39749 21
58.45666 9
58.51582 11
58.57498 19
58.63415 30
58.69331 27
58.75248 28
58.81164 12
58.87081 12
58.92997 21
58.98914 19
59.04830 17
59.10746 23
59.16663 2
59.22579 9
59.28495 18
59.34412 28
59.40328 17
59.46245 18
59.52161 0
59.58078 7
59.63994 15
59.69910 27
59.75827 25
59.81743 19
59.87659 20
59.93576 12
59.99492 11
60.05409 12
60.11325 21
60.17242 14
60.23158 10
60.29074 0
60.34991 16
60.40907 25
60.46823 11
60.52740 5
60.58656 9
60.64573 14
60.70489 31
60.76406 28
60.82322 5
60.88238 6
60.94155 0
61.00071 13
61.05987 16
61.11904 16
61.17820 22
61.23737 22
61.29653 28
61.35570 19
61.41486 13
61.47403 9
61.53319 6
61.59235 21
61.65152 31
61.71068 23
61.76985 0
61.82901 0
61.88818 16
61.94734 31
62.00650 10
62.06567 7
62.12483 2
62.18399 13
62.24316 23
62.30232 21
62.36149 31
62.42065 47
62.47982 59
62.53898 67
62.59814 62
62.65731 113
62.71647 169
62.77563 284
62.83480 417
62.89396 414
62.95313 285
63.01229 179
63.07146 88
63.13062 61
63.18978 44
63.24895 59
63.30811 42
63.36727 21
63.42644 26
63.48560 26
63.54477 42
63.60393 42
63.66310 48
63.72226 14
63.78142 0
63.84059 0
63.89975 17
63.95892 20
64.01808 24
64.07724 19
64.13641 19
64.19558 15
64.25474 26
64.31390 25
64.37307 24
64.43223 2
64.49140 10
64.55056 15
64.60972 27
64.66889 21
64.72805 28
64.78721 19
64.84638 14
64.90554 8
64.96471 21
65.02387 33
65.08303 42
65.14220 48
65.20137 50
65.26052 16
65.31969 18
65.37886 13
65.43802 39
65.49718 23
65.55635 6
65.61551 15
65.67468 26
65.73384 24
65.79300 16
65.85217 19
65.91133 19
65.97049 0
66.02966 11
66.08882 12
66.14799 11
66.20716 6
66.26631 18
66.32548 27
66.38465 18
66.44381 10
66.50297 4
66.56214 16
66.62130 5
66.68047 10
66.73963 33
66.79879 17
66.85796 8
66.91713 3
66.97628 5
67.03545 21
67.09462 31
67.15378 13
67.21294 8
67.27211 0
67.33127 0
67.39044 11
67.4496  23
67.50876 29
67.56793 24
67.62709 9
67.68625 5
67.74542 4
67.80458 5
67.86375 17
67.92291 24
67.98207 27
68.04124 29
68.10041 23
68.15956 6
68.21873 7
68.27790 21
68.33706 19
68.39622 18
68.45539 13
68.51455 11
68.57372 0
68.63288 2
68.69204 2
68.75121 23
68.81037 15
68.86954 10
68.92870 6
68.98786 4
69.04703 9
69.10620 16
69.16535 24
69.22452 15
69.28369 13
69.34285 3
69.40201 13
69.46118 29
69.52034 9
69.57951 5
69.63867 7
69.69783 19
69.75700 28
69.81617 11
69.87532 14
69.93449 10
69.99366 18
70.05282 16
70.11198 15
70.17115 14
70.23031 11
70.28948 13
70.34864 6
70.40780 20
70.46697 23
70.52613 21
70.58529 1
70.64446 24
70.70362 15
70.76279 6
70.82195 27
70.88111 33
70.94028 26
70.99945 24
71.05861 7
71.11777 24
71.17694 13
71.23610 17
71.29527 19
71.35443 28
71.41359 16
71.47276 17
71.53192 22
71.59108 18
71.65025 28
71.70941 32
71.76858 24
71.82774 12
71.88690 11
71.94607 9
72.00524 3
72.0644  18
72.12356 33
72.18273 29
72.24189 30
72.30105 15
72.36022 5
72.41938 0
72.47855 11
72.53771 33
72.59687 29
72.65604 29
72.71521 19
72.77436 16
72.83353 8
72.8927  12
72.95186 32
73.01102 28
73.07019 27
73.12935 28
73.18852 2
73.24768 2
73.30684 8
73.36601 27
73.42517 37
73.48434 20
73.54350 31
73.60266 8
73.66183 2
73.72100 9
73.78015 11
73.83932 21
73.89849 25
73.95765 17
74.01681 28
74.07598 29
74.13514 42
74.19431 78
74.25347 70
74.31263 72
74.37180 59
74.43096 56
74.49012 52
74.54929 49
74.60845 40
74.66762 35
74.72678 23
74.78595 15
74.84511 22
74.90428 16
74.96344 19
75.02260 25
75.08177 24
75.14093 39
75.20009 38
75.25926 48
75.31842 57
75.37759 72
75.43675 61
75.49591 55
75.55508 139
75.61425 283
75.67340 343
75.73257 226
75.79174 140
75.85090 121
75.91007 110
75.96923 82
76.02839 79
76.08756 69
76.14672 53
76.20588 67
76.26505 78
76.32421 94
76.38338 125
76.44254 88
76.50170 53
76.56087 35
76.62004 21
76.67919 21
76.73836 12
76.79753 14
76.85669 34
76.91585 33
76.97502 18
77.03418 11
77.09335 20
77.15251 1
77.21167 6
77.27084 17
77.33000 11
77.38916 11
77.44833 24
77.5075  21
77.56666 12
77.62582 12
77.68499 4
77.74415 7
77.80332 29
77.86248 21
77.92164 35
77.98081 20
78.03997 4
78.09913 2
78.15830 0
78.21746 11
78.27663 24
78.3358  23
78.39495 33
78.45412 25
78.51329 21
78.57245 29
78.63161 6
78.69078 9
78.74994 15
78.80911 17
78.86827 13
78.92743 19
78.98660 32
79.04576 36
79.10492 50
79.16409 76
79.22325 116
79.28242 183
79.34158 212
79.40074 185
79.45991 154
79.51908 77
79.57823 67
79.63740 57
79.69657 31
79.75573 37
79.81489 10
79.87406 9
79.93322 25
79.99239 16
80.05155 28
80.11071 25
80.16988 16
80.22905 21
80.28820 24
80.34737 4
80.40654 10
80.46570 17
80.52486 9
80.58403 30
80.64319 24
80.70236 3
80.76152 11
80.82068 6
80.87985 20
80.93901 36
80.99818 18
81.05734 17
81.11650 13
81.17567 14
81.23484 8
81.29399 15
81.35316 18
81.41233 16
81.47149 5
81.53065 11
81.58982 12
81.64898 23
81.70815 19
81.76731 39
81.82647 23
81.88564 11
81.94480 10
82.00396 8
82.06313 6
82.12229 24
82.18146 13
82.24062 19
82.29978 22
82.35895 23
82.41812 44
82.47728 27
82.53644 12
82.59561 26
82.65477 14
82.71393 16
82.77310 11
82.83226 0
82.89143 21
82.95059 21
83.00975 28
83.06892 37
83.12809 16
83.18725 7
83.24641 0
83.30558 0
83.36474 7
83.42391 22
83.48307 35
83.54223 46
83.60140 35
83.66056 26
83.71972 13
83.77889 9
83.83805 20
83.89722 22
83.95638 23
84.01554 31
84.07471 25
84.13388 14
84.19303 6
84.25220 17
84.31137 31
84.37053 25
84.42969 29
84.48886 26
84.54802 29
84.60719 26
84.66635 11
84.72551 36
84.78468 26
84.84384 9
84.90300 30
84.96217 19
85.02133 20
85.08050 34
85.13966 22
85.19883 22
85.25799 28
85.31716 18
85.37632 14
85.43548 24
85.49465 31
85.55381 20
85.61298 3
85.67214 8
85.73130 12
85.79047 24
85.84964 29
85.90879 11
85.96796 17
86.02713 26
86.08629 37
86.14545 32
86.20462 22
86.26378 17
86.32295 25
86.38211 28
86.44127 20
86.50044 41
86.55960 33
86.61876 24
86.67793 18
86.73709 24
86.79626 26
86.85542 32
86.91458 21
86.97375 35
87.03292 34
87.09207 21
87.15124 39
87.21041 45
87.26957 26
87.32873 40
87.38790 23
87.44706 14
87.50623 31
87.56539 30
87.62455 14
87.68372 13
87.74288 22
87.80204 14
87.86121 20
87.92038 19
87.97954 22
88.03871 23
88.09787 25
88.15703 20
88.21620 9
88.27536 15
88.33452 22
88.39369 20
88.45285 13
88.51202 22
88.57118 40
88.63034 16
88.68951 3
88.74868 18
88.80783 14
88.86700 3
88.92617 12
88.98533 20
89.04449 4
89.10366 12
89.16282 29
89.22199 21
89.28115 28
89.34031 25
89.39948 5
89.45864 11
89.51780 24
89.57697 32
89.63613 30
89.69530 43
89.75446 43
89.81362 31
89.87279 35
89.93196 52
89.99111 45