File: XRD/600-07.uxd
;content of D:\data\result\mecham\???\20231225-89741\600-07.raw - (Diffrac Plus V4 file)
_FILEVERSION = 3
_SAMPLE
_+SAMPLE
_USER = Lab Manager
_GONIOMETER_CODE = 21
_STAGE_CODE = 7
; Goniometer : D8 theta/theta, stage : Chi drive
_SAMPLE_CHANGER_CODE = 0
_ATTACHMENTS_CODE = 0
_GONIOMETER_RADIUS = 280
_MONOCHROMATOR = 0
; Incident beam monochromator : None
_BETA_FILTER = N
_ANALYZER_CODE = 0
; Received beam analyzer : None
_DATEMEASURED = 25-Dec-2023 10:43:43
_RUNTIME = 11.19043
_WL_UNIT = A
_WL1 = 1.5406
_WL2 = 1.54439
_WL3 = 1.39222
_WLRATIO = 0.5
_ANODE = Cu
_V4_INF_USER = Lab Manager
_V4_INF_CREATOR = V5Converter
_V4_INF_CREATOR_VERSION = 4.4.16.0

; Data for range 1
_DRIVE = COUPLED
_STEPTIME = 57.6
_STEPSIZE = 0.019721
_STEPMODE = C
_START = 20
_THETA = 10
_2THETA = 20
_KHI = 0
_PHI = 0
_DETECTORSLIT = out
_AUX1 = 0
_TIMESTARTED = 0
_KV = 40
_MA = 40
_RANGE_WL = 1.5406
_3DPLANE = 0
_V4_PSD2THETA = 9999
_V4_PSDCHANNEL1 = 0
_V4_PSDAPERTURE = 2.839876
_V4_PSDTYPE = 5
_V4_PSDFIXED = 0
_V4_COUNTERS_MASK = 1
_V4_DRIVES_MASK = 0
_V4_ENCODERS_MASK = 0
_2THETACOUNTS = 1
; 2THETA	Cnt2_D1
20	293
20.0592	283
20.1183	265
20.1775	256
20.2367	279
20.2958	271
20.355	286
20.4141	312
20.4733	288
20.5325	278
20.5916	287
20.6508	284
20.71	307
20.7691	287
20.8283	273
20.8875	268
20.9466	311
21.0058	279
21.065	293
21.1241	297
21.1833	305
21.2424	299
21.3016	289
21.3608	311
21.4199	309
21.4791	286
21.5383	263
21.5974	316
21.6566	277
21.7158	292
21.7749	309
21.8341	276
21.8933	312
21.9524	248
22.0116	290
22.0707	268
22.1299	284
22.1891	298
22.2482	287
22.3074	274
22.3666	312
22.4257	309
22.4849	276
22.5441	293
22.6032	305
22.6624	285
22.7215	267
22.7807	299
22.8399	300
22.899	288
22.9582	333
23.0174	264
23.0765	293
23.1357	330
23.1949	285
23.254	309
23.3132	313
23.3724	299
23.4315	283
23.4907	298
23.5498	275
23.609	313
23.6682	276
23.7273	321
23.7865	308
23.8457	290
23.9048	291
23.964	291
24.0232	290
24.0823	312
24.1415	281
24.2006	301
24.2598	336
24.319	309
24.3781	348
24.4373	324
24.4965	396
24.5556	334
24.6148	359
24.674	304
24.7331	329
24.7923	302
24.8515	277
24.9106	306
24.9698	279
25.0289	307
25.0881	328
25.1473	319
25.2064	313
25.2656	304
25.3248	314
25.3839	272
25.4431	305
25.5023	286
25.5614	329
25.6206	318
25.6798	289
25.7389	346
25.7981	303
25.8572	289
25.9164	321
25.9756	346
26.0347	296
26.0939	322
26.1531	307
26.2122	317
26.2714	332
26.3306	278
26.3897	287
26.4489	313
26.5081	314
26.5672	298
26.6264	289
26.6855	319
26.7447	297
26.8039	287
26.863	282
26.9222	307
26.9814	309
27.0405	318
27.0997	327
27.1589	264
27.218	274
27.2772	283
27.3363	327
27.3955	303
27.4547	276
27.5138	305
27.573	284
27.6322	310
27.6913	265
27.7505	285
27.8097	312
27.8688	285
27.928	297
27.9872	312
28.0463	337
28.1055	311
28.1646	311
28.2238	321
28.283	299
28.3421	296
28.4013	292
28.4605	293
28.5196	312
28.5788	330
28.638	290
28.6971	307
28.7563	319
28.8154	278
28.8746	321
28.9338	286
28.9929	292
29.0521	301
29.1113	338
29.1704	290
29.2296	301
29.2888	331
29.3479	336
29.4071	325
29.4663	320
29.5254	326
29.5846	298
29.6437	304
29.7029	290
29.7621	325
29.8212	332
29.8804	339
29.9396	308
29.9987	331
30.0579	344
30.1171	444
30.1762	483
30.2354	689
30.2946	851
30.3537	677
30.4129	444
30.472	350
30.5312	314
30.5904	298
30.6495	366
30.7087	300
30.7679	297
30.827	311
30.8862	282
30.9454	327
31.0045	321
31.0637	312
31.1228	301
31.182	317
31.2412	311
31.3003	296
31.3595	326
31.4187	314
31.4778	323
31.537	307
31.5962	297
31.6553	327
31.7145	291
31.7737	294
31.8328	308
31.892	302
31.9511	305
32.0103	341
32.0695	311
32.1286	302
32.1878	284
32.247	299
32.3061	317
32.3653	336
32.4245	288
32.4836	290
32.5428	309
32.602	297
32.6611	321
32.7203	339
32.7794	305
32.8386	321
32.8978	316
32.9569	327
33.0161	302
33.0753	297
33.1344	309
33.1936	333
33.2528	322
33.3119	320
33.3711	332
33.4302	349
33.4894	341
33.5486	438
33.6077	407
33.6669	405
33.7261	399
33.7852	430
33.8444	371
33.9036	333
33.9627	319
34.0219	320
34.0811	328
34.1402	343
34.1994	327
34.2585	350
34.3177	305
34.3769	329
34.436	317
34.4952	339
34.5544	310
34.6135	332
34.6727	342
34.7319	315
34.791	346
34.8502	331
34.9094	338
34.9685	340
35.0277	343
35.0868	325
35.146	355
35.2052	330
35.2643	362
35.3235	377
35.3827	444
35.4418	560
35.501	770
35.5602	1034
35.6193	1524
35.6785	1476
35.7376	1060
35.7968	696
35.856	447
35.9151	379
35.9743	358
36.0335	426
36.0926	370
36.1518	423
36.211	470
36.2701	449
36.3293	425
36.3885	404
36.4476	380
36.5068	344
36.5659	318
36.6251	367
36.6843	369
36.7434	331
36.8026	345
36.8618	332
36.9209	364
36.9801	371
37.0393	517
37.0984	585
37.1576	1095
37.2168	1987
37.2759	3265
37.3351	3003
37.3942	2112
37.4534	1064
37.5126	618
37.5717	449
37.6309	391
37.6901	369
37.7492	375
37.8084	333
37.8676	327
37.9267	340
37.9859	306
38.045	369
38.1042	300
38.1634	298
38.2225	338
38.2817	294
38.3409	321
38.4	355
38.4592	376
38.5184	332
38.5775	315
38.6367	354
38.6959	306
38.755	340
38.8142	326
38.8733	342
38.9325	334
38.9917	306
39.0508	301
39.11	300
39.1692	333
39.2283	338
39.2875	327
39.3467	344
39.4058	320
39.465	340
39.5241	315
39.5833	343
39.6425	332
39.7016	337
39.7608	342
39.82	320
39.8791	351
39.9383	341
39.9975	318
40.0566	294
40.1158	354
40.175	313
40.2341	294
40.2933	326
40.3524	335
40.4116	326
40.4708	337
40.5299	300
40.5891	339
40.6483	336
40.7074	316
40.7666	292
40.8258	304
40.8849	314
40.9441	288
41.0033	305
41.0624	266
41.1216	311
41.1807	289
41.2399	326
41.2991	337
41.3582	315
41.4174	370
41.4766	369
41.5357	369
41.5949	323
41.6541	335
41.7132	363
41.7724	303
41.8316	352
41.8907	331
41.9499	287
42.009	341
42.0682	309
42.1274	320
42.1865	342
42.2457	325
42.3049	304
42.364	351
42.4232	358
42.4824	363
42.5415	341
42.6007	338
42.6598	366
42.719	353
42.7782	322
42.8373	321
42.8965	341
42.9557	378
43.0148	352
43.074	408
43.1332	438
43.1923	536
43.2515	694
43.3107	976
43.3698	872
43.429	725
43.4881	557
43.5473	445
43.6065	391
43.6656	377
43.7248	356
43.784	389
43.8431	376
43.9023	404
43.9615	421
44.0206	602
44.0798	1305
44.1389	3886
44.1981	4035
44.2573	3997
44.3164	3013
44.3756	1917
44.4348	1378
44.4939	1145
44.5531	1087
44.6123	770
44.6714	626
44.7306	466
44.7898	419
44.8489	357
44.9081	356
44.9672	371
45.0264	346
45.0856	359
45.1447	326
45.2039	347
45.2631	331
45.3222	295
45.3814	321
45.4406	360
45.4997	365
45.5589	339
45.6181	333
45.6772	291
45.7364	355
45.7955	326
45.8547	317
45.9139	318
45.973	361
46.0322	317
46.0914	325
46.1505	321
46.2097	316
46.2689	334
46.328	339
46.3872	323
46.4463	330
46.5055	301
46.5647	328
46.6238	348
46.683	311
46.7422	348
46.8013	316
46.8605	324
46.9197	322
46.9788	327
47.038	340
47.0972	331
47.1563	333
47.2155	329
47.2746	304
47.3338	346
47.393	334
47.4521	336
47.5113	323
47.5705	312
47.6296	298
47.6888	332
47.748	330
47.8071	339
47.8663	325
47.9255	319
47.9846	328
48.0438	312
48.1029	343
48.1621	317
48.2213	325
48.2804	304
48.3396	295
48.3988	338
48.4579	341
48.5171	339
48.5763	352
48.6354	294
48.6946	310
48.7537	323
48.8129	288
48.8721	316
48.9312	299
48.9904	308
49.0496	294
49.1087	303
49.1679	311
49.2271	296
49.2862	282
49.3454	296
49.4046	310
49.4637	332
49.5229	312
49.582	328
49.6412	298
49.7004	328
49.7595	319
49.8187	340
49.8779	348
49.937	320
49.9962	346
50.0554	328
50.1145	330
50.1737	356
50.2329	315
50.292	340
50.3512	332
50.4103	319
50.4695	334
50.5287	368
50.5878	346
50.647	333
50.7062	306
50.7653	336
50.8245	336
50.8837	325
50.9428	303
51.002	323
51.0611	334
51.1203	317
51.1795	365
51.2386	351
51.2978	449
51.357	637
51.4161	1148
51.4753	1205
51.5345	1035
51.5936	1080
51.6528	782
51.712	706
51.7711	720
51.8303	694
51.8894	662
51.9486	573
52.0078	537
52.0669	450
52.1261	398
52.1853	348
52.2444	359
52.3036	372
52.3628	281
52.4219	323
52.4811	333
52.5403	348
52.5994	346
52.6586	321
52.7177	328
52.7769	315
52.8361	347
52.8952	304
52.9544	328
53.0136	298
53.0727	328
53.1319	325
53.1911	338
53.2502	313
53.3094	313
53.3685	362
53.4277	330
53.4869	352
53.546	380
53.6052	406
53.6644	424
53.7235	415
53.7827	405
53.8419	391
53.901	363
53.9602	332
54.0194	323
54.0785	329
54.1377	337
54.1968	319
54.256	297
54.3152	318
54.3743	325
54.4335	346
54.4927	316
54.5518	338
54.611	335
54.6702	344
54.7293	375
54.7885	345
54.8477	352
54.9068	338
54.966	400
55.0251	365
55.0843	347
55.1435	342
55.2026	314
55.2618	348
55.321	273
55.3801	327
55.4393	302
55.4985	297
55.5576	313
55.6168	324
55.6759	266
55.7351	283
55.7943	297
55.8534	276
55.9126	328
55.9718	312
56.0309	339
56.0901	291
56.1493	330
56.2084	346
56.2676	294
56.3268	322
56.3859	330
56.4451	333
56.5042	323
56.5634	300
56.6226	327
56.6817	336
56.7409	318
56.8001	309
56.8592	336
56.9184	366
56.9776	374
57.0367	370
57.0959	443
57.155	456
57.2142	543
57.2734	577
57.3325	506
57.3917	483
57.4509	415
57.51	360
57.5692	392
57.6284	337
57.6875	333
57.7467	316
57.8059	321
57.865	315
57.9242	311
57.9833	326
58.0425	283
58.1017	319
58.1608	306
58.22	329
58.2792	290
58.3383	314
58.3975	321
58.4567	296
58.5158	302
58.575	278
58.6342	313
58.6933	338
58.7525	350
58.8116	315
58.8708	318
58.93	312
58.9891	281
59.0483	297
59.1075	290
59.1666	288
59.2258	324
59.285	282
59.3441	292
59.4033	316
59.4624	286
59.5216	286
59.5808	306
59.6399	294
59.6991	322
59.7583	278
59.8174	281
59.8766	318
59.9358	318
59.9949	297
60.0541	315
60.1133	318
60.1724	283
60.2316	285
60.2907	281
60.3499	296
60.4091	292
60.4682	281
60.5274	287
60.5866	295
60.6457	280
60.7049	308
60.7641	319
60.8232	294
60.8824	318
60.9416	289
61.0007	311
61.0599	326
61.119	290
61.1782	278
61.2374	324
61.2965	308
61.3557	314
61.4149	311
61.474	314
61.5332	276
61.5924	283
61.6515	285
61.7107	302
61.7698	298
61.829	289
61.8882	302
61.9473	325
62.0065	261
62.0657	325
62.1248	286
62.184	280
62.2432	290
62.3023	300
62.3615	302
62.4207	342
62.4798	355
62.539	365
62.5981	359
62.6573	421
62.7165	427
62.7756	590
62.8348	730
62.894	817
62.9531	684
63.0123	682
63.0715	554
63.1306	479
63.1898	385
63.249	372
63.3081	352
63.3673	304
63.4264	339
63.4856	345
63.5448	358
63.6039	363
63.6631	326
63.7223	284
63.7814	266
63.8406	327
63.8998	291
63.9589	269
64.0181	287
64.0772	290
64.1364	288
64.1956	314
64.2547	313
64.3139	299
64.3731	300
64.4322	289
64.4914	317
64.5506	282
64.6097	293
64.6689	296
64.7281	311
64.7872	310
64.8464	318
64.9055	298
64.9647	294
65.0239	303
65.083	341
65.1422	327
65.2014	324
65.2605	301
65.3197	336
65.3789	308
65.438	317
65.4972	306
65.5563	282
65.6155	304
65.6747	339
65.7338	285
65.793	291
65.8522	323
65.9113	294
65.9705	300
66.0297	295
66.0888	285
66.148	267
66.2072	305
66.2663	287
66.3255	338
66.3846	289
66.4438	285
66.503	306
66.5621	294
66.6213	283
66.6805	261
66.7396	318
66.7988	255
66.858	279
66.9171	298
66.9763	289
67.0355	312
67.0946	326
67.1538	273
67.2129	266
67.2721	309
67.3313	288
67.3904	289
67.4496	317
67.5088	305
67.5679	302
67.6271	278
67.6863	287
67.7454	305
67.8046	253
67.8637	298
67.9229	317
67.9821	309
68.0412	287
68.1004	314
68.1596	293
68.2187	294
68.2779	285
68.3371	274
68.3962	314
68.4554	282
68.5146	294
68.5737	319
68.6329	289
68.692	262
68.7512	266
68.8104	307
68.8695	282
68.9287	288
68.9879	244
69.047	300
69.1062	278
69.1654	292
69.2245	282
69.2837	285
69.3429	291
69.402	271
69.4612	323
69.5203	283
69.5795	275
69.6387	273
69.6978	285
69.757	273
69.8162	303
69.8753	275
69.9345	311
69.9937	291
70.0528	290
70.112	265
70.1711	290
70.2303	272
70.2895	294
70.3486	250
70.4078	287
70.467	278
70.5261	323
70.5853	252
70.6445	306
70.7036	303
70.7628	276
70.822	309
70.8811	307
70.9403	279
70.9994	323
71.0586	281
71.1178	299
71.1769	280
71.2361	286
71.2953	273
71.3544	342
71.4136	286
71.4728	275
71.5319	273
71.5911	328
71.6503	275
71.7094	289
71.7686	319
71.8277	300
71.8869	257
71.9461	275
72.0052	276
72.0644	265
72.1236	287
72.1827	283
72.2419	284
72.3011	279
72.3602	283
72.4194	290
72.4785	272
72.5377	273
72.5969	281
72.656	297
72.7152	264
72.7744	288
72.8335	266
72.8927	270
72.9519	302
73.011	272
73.0702	306
73.1294	276
73.1885	269
73.2477	265
73.3068	296
73.366	278
73.4252	316
73.4843	270
73.5435	271
73.6027	281
73.6618	251
73.721	267
73.7802	282
73.8393	263
73.8985	294
73.9577	268
74.0168	304
74.076	298
74.1351	327
74.1943	320
74.2535	367
74.3126	345
74.3718	346
74.431	342
74.4901	318
74.5493	355
74.6085	354
74.6676	320
74.7268	326
74.7859	293
74.8451	274
74.9043	271
74.9634	298
75.0226	291
75.0818	317
75.1409	305
75.2001	313
75.2593	304
75.3184	333
75.3776	351
75.4368	344
75.4959	326
75.5551	416
75.6142	587
75.6734	630
75.7326	512
75.7917	451
75.8509	543
75.9101	513
75.9692	460
76.0284	389
76.0876	410
76.1467	348
76.2059	381
76.2651	359
76.3242	385
76.3834	406
76.4425	382
76.5017	334
76.5609	337
76.62	349
76.6792	319
76.7384	285
76.7975	286
76.8567	263
76.9159	327
76.975	277
77.0342	271
77.0933	294
77.1525	266
77.2117	288
77.2708	296
77.33	242
77.3892	259
77.4483	287
77.5075	279
77.5667	265
77.6258	281
77.685	279
77.7442	263
77.8033	296
77.8625	273
77.9216	285
77.9808	288
78.04	267
78.0991	269
78.1583	276
78.2175	258
78.2766	296
78.3358	282
78.395	312
78.4541	296
78.5133	294
78.5725	303
78.6316	258
78.6908	286
78.7499	267
78.8091	268
78.8683	262
78.9274	278
78.9866	282
79.0458	291
79.1049	324
79.1641	361
79.2233	403
79.2824	439
79.3416	493
79.4007	455
79.4599	454
79.5191	418
79.5782	397
79.6374	436
79.6966	359
79.7557	332
79.8149	275
79.8741	315
79.9332	288
79.9924	255
80.0516	284
80.1107	277
80.1699	283
80.229	279
80.2882	277
80.3474	264
80.4065	261
80.4657	277
80.5249	285
80.584	267
80.6432	245
80.7024	234
80.7615	251
80.8207	271
80.8799	274
80.939	247
80.9982	268
81.0573	258
81.1165	228
81.1757	226
81.2348	272
81.294	244
81.3532	260
81.4123	233
81.4715	238
81.5307	263
81.5898	229
81.649	262
81.7081	261
81.7673	265
81.8265	282
81.8856	284
81.9448	239
82.004	251
82.0631	265
82.1223	245
82.1815	253
82.2406	259
82.2998	256
82.359	240
82.4181	287
82.4773	255
82.5364	265
82.5956	276
82.6548	266
82.7139	252
82.7731	245
82.8323	240
82.8914	254
82.9506	263
83.0098	269
83.0689	258
83.1281	261
83.1873	232
83.2464	225
83.3056	249
83.3647	222
83.4239	234
83.4831	254
83.5422	282
83.6014	241
83.6606	288
83.7197	270
83.7789	242
83.8381	262
83.8972	250
83.9564	240
84.0155	252
84.0747	251
84.1339	247
84.193	236
84.2522	235
84.3114	278
84.3705	258
84.4297	266
84.4889	240
84.548	263
84.6072	245
84.6664	255
84.7255	273
84.7847	255
84.8438	249
84.903	257
84.9622	239
85.0213	267
85.0805	241
85.1397	234
85.1988	242
85.258	256
85.3172	238
85.3763	246
85.4355	256
85.4946	267
85.5538	264
85.613	199
85.6721	211
85.7313	258
85.7905	227
85.8496	264
85.9088	232
85.968	249
86.0271	236
86.0863	244
86.1455	250
86.2046	250
86.2638	256
86.3229	249
86.3821	226
86.4413	235
86.5004	259
86.5596	237
86.6188	249
86.6779	240
86.7371	239
86.7963	270
86.8554	279
86.9146	224
86.9738	230
87.0329	230
87.0921	253
87.1512	279
87.2104	285
87.2696	254
87.3287	276
87.3879	234
87.4471	246
87.5062	235
87.5654	246
87.6246	235
87.6837	240
87.7429	244
87.802	237
87.8612	244
87.9204	242
87.9795	247
88.0387	246
88.0979	226
88.157	237
88.2162	256
88.2754	251
88.3345	225
88.3937	232
88.4529	247
88.512	195
88.5712	244
88.6303	250
88.6895	223
88.7487	218
88.8078	224
88.867	235
88.9262	195
88.9853	210
89.0445	233
89.1037	212
89.1628	239
89.222	229
89.2812	264
89.3403	247
89.3995	231
89.4586	247
89.5178	243
89.577	261
89.6361	242
89.6953	266
89.7545	266
89.8136	244
89.8728	262
89.932	277
89.9911	285