File: XRD/600-02.txt
?
20.0     5
20.05916 5
20.11832 36
20.17749 36
20.23665 12
20.29582 22
20.35498 27
20.41414 18
20.47331 22
20.53247 18
20.59164 31
20.65080 14
20.70996 15
20.76913 23
20.82829 37
20.88746 36
20.94662 19
21.00578 13
21.06495 20
21.12411 31
21.18328 18
21.24244 22
21.30161 23
21.36077 20
21.41993 16
21.47910 22
21.53826 17
21.59743 15
21.65659 30
21.71575 22
21.77492 26
21.83408 21
21.89325 35
21.95241 23
22.01158 24
22.07074 29
22.12990 9
22.18907 15
22.24823 26
22.3074  20
22.36656 38
22.42572 30
22.48489 15
22.54405 26
22.60322 31
22.66238 36
22.72154 17
22.78071 18
22.83987 17
22.89904 14
22.95820 26
23.01736 23
23.07653 7
23.13569 19
23.19486 16
23.25402 26
23.31318 50
23.37235 12
23.43151 22
23.49068 38
23.54984 11
23.60900 21
23.66817 22
23.72733 16
23.78650 19
23.84566 37
23.90483 16
23.96399 33
24.02315 27
24.08232 19
24.14148 45
24.20065 63
24.25981 76
24.31897 135
24.37814 114
24.43730 143
24.49647 118
24.55563 63
24.61479 59
24.67396 63
24.73312 19
24.79229 28
24.85145 27
24.91062 41
24.96978 2
25.02894 18
25.08811 36
25.14727 12
25.20644 35
25.26560 32
25.32476 8
25.38393 26
25.44309 29
25.50226 27
25.56142 30
25.62058 5
25.67975 10
25.73891 20
25.79808 16
25.85724 9
25.91640 12
25.97557 7
26.03473 15
26.09390 18
26.15306 12
26.21223 16
26.27139 16
26.33055 18
26.38972 13
26.44888 1
26.50805 12
26.56721 6
26.62637 41
26.68554 48
26.74470 12
26.80387 21
26.86303 14
26.92219 27
26.98136 18
27.04052 11
27.09969 0
27.15885 8
27.21801 7
27.27718 15
27.33634 12
27.39551 6
27.45467 17
27.51384 3
27.57300 18
27.63216 16
27.69133 9
27.75049 13
27.80966 5
27.86882 13
27.92798 11
27.98715 22
28.04631 19
28.10548 8
28.16464 12
28.22380 19
28.28297 15
28.34213 9
28.4013  8
28.46046 5
28.51963 3
28.57879 3
28.63795 20
28.69712 43
28.75628 9
28.81545 8
28.87461 12
28.93377 3
28.99294 22
29.05210 17
29.11127 7
29.17043 9
29.22959 23
29.28876 8
29.34792 9
29.40709 6
29.46625 4
29.52541 12
29.58458 18
29.64374 11
29.70291 15
29.76207 27
29.82123 8
29.88040 2
29.93956 19
29.99873 25
30.05789 25
30.11706 37
30.17622 25
30.23538 51
30.29455 36
30.35371 10
30.41288 10
30.47204 21
30.53120 27
30.59037 9
30.64953 16
30.7087  25
30.76786 5
30.82702 10
30.88619 19
30.94535 17
31.00452 19
31.06368 25
31.12285 11
31.18201 20
31.24117 28
31.30034 8
31.35950 16
31.41867 19
31.47783 4
31.53699 2
31.59616 9
31.65532 16
31.71449 0
31.77365 19
31.83281 27
31.89198 29
31.95114 26
32.01031 2
32.06947 10
32.12863 21
32.18780 30
32.24696 36
32.30613 50
32.36529 10
32.42446 13
32.48362 37
32.54278 17
32.60195 15
32.66111 25
32.72028 27
32.77944 23
32.83860 20
32.89777 20
32.95693 11
33.01610 20
33.07526 33
33.13443 42
33.19359 48
33.25275 60
33.31192 94
33.37108 149
33.43024 156
33.48941 132
33.54857 120
33.60774 88
33.66690 58
33.72607 63
33.78523 62
33.84439 31
33.90356 35
33.96272 38
34.02188 17
34.08105 14
34.14021 10
34.19938 23
34.25854 51
34.31771 23
34.37687 20
34.43603 31
34.49520 30
34.55436 34
34.61353 43
34.67269 43
34.73186 37
34.79102 12
34.85018 39
34.90935 34
34.96851 39
35.02767 54
35.08684 37
35.14600 27
35.20517 40
35.26433 57
35.32350 43
35.38266 27
35.44183 55
35.50099 89
35.56015 70
35.61932 67
35.67848 91
35.73764 94
35.79681 96
35.85597 97
35.91514 84
35.97430 93
36.03347 94
36.09263 61
36.15179 40
36.21096 43
36.27012 66
36.32928 33
36.38845 25
36.44761 41
36.50678 18
36.56594 34
36.62511 48
36.68427 29
36.74343 28
36.80260 39
36.86176 17
36.92092 24
36.98009 40
37.03926 45
37.09842 13
37.15758 66
37.21675 84
37.27591 36
37.33507 53
37.39424 40
37.45340 35
37.51257 25
37.57173 28
37.63090 15
37.69006 25
37.74922 66
37.80839 47
37.86755 8
37.92672 26
37.98588 47
38.04504 35
38.10421 34
38.16337 24
38.22254 34
38.28170 32
38.34087 14
38.40003 30
38.45919 20
38.51836 31
38.57752 41
38.63668 29
38.69585 36
38.75501 17
38.81418 15
38.87334 24
38.93251 25
38.99167 33
39.05083 48
39.11000 23
39.16916 13
39.22832 25
39.28749 37
39.34665 29
39.40582 31
39.46498 41
39.52415 27
39.58331 49
39.64247 42
39.70164 27
39.76080 23
39.81997 12
39.87913 18
39.93830 33
39.99746 30
40.05662 22
40.11579 58
40.17495 16
40.23411 8
40.29328 33
40.35244 38
40.41161 12
40.47077 25
40.52994 28
40.58910 17
40.64827 26
40.70743 35
40.76659 19
40.82576 34
40.88492 42
40.94408 28
41.00325 18
41.06241 40
41.12158 43
41.18074 53
41.23991 77
41.29907 30
41.35823 15
41.4174  63
41.47656 54
41.53572 37
41.59489 30
41.65405 9
41.71322 23
41.77238 33
41.83155 56
41.89071 28
41.94987 23
42.00904 54
42.06820 42
42.12737 21
42.18653 25
42.24570 47
42.30486 45
42.36402 24
42.42319 17
42.48235 13
42.54151 28
42.60068 48
42.65984 64
42.71901 27
42.77817 28
42.83734 80
42.89650 62
42.95566 55
43.01483 71
43.07399 65
43.13316 61
43.19232 96
43.25148 96
43.31065 97
43.36981 113
43.42898 90
43.48814 61
43.54731 53
43.60647 64
43.66563 86
43.7248  79
43.78396 99
43.84312 171
43.90229 298
43.96145 531
44.02062 1631
44.07978 6538
44.13895 11443
44.19811 9325
44.25727 3599
44.31644 659
44.37560 335
44.43477 218
44.49393 169
44.55310 85
44.61226 72
44.67142 85
44.73059 70
44.78975 80
44.84891 81
44.90808 55
44.96724 39
45.02641 48
45.08557 54
45.14474 47
45.20390 63
45.26306 68
45.32223 50
45.38139 37
45.44055 49
45.49972 65
45.55888 45
45.61805 24
45.67721 42
45.73638 29
45.79554 29
45.85471 32
45.91387 57
45.97303 39
46.0322  35
46.09136 33
46.15052 33
46.20969 45
46.26885 23
46.32802 27
46.38718 42
46.44635 40
46.50551 30
46.56467 21
46.62384 16
46.68300 22
46.74217 29
46.80133 30
46.8605  43
46.91966 35
46.97882 34
47.03799 33
47.09715 27
47.15631 26
47.21548 27
47.27464 54
47.33381 37
47.39297 2
47.45214 10
47.51130 26
47.57046 43
47.62963 61
47.68879 33
47.74795 35
47.80712 31
47.86628 21
47.92545 30
47.98461 15
48.04378 16
48.10294 25
48.16210 40
48.22127 27
48.28043 20
48.3396  13
48.39876 25
48.45792 21
48.51709 11
48.57625 42
48.63542 33
48.69458 5
48.75375 21
48.81291 41
48.87207 28
48.93124 14
48.99040 10
49.04956 15
49.10873 29
49.1679  20
49.22706 15
49.28622 26
49.34539 34
49.40455 8
49.46371 16
49.52288 44
49.58204 46
49.64121 20
49.70037 16
49.75954 40
49.81870 37
49.87786 27
49.93703 54
49.99619 55
50.05535 47
50.11452 14
50.17368 21
50.23285 57
50.29201 52
50.35118 45
50.41034 45
50.46950 41
50.52867 33
50.58783 20
50.64699 13
50.70616 29
50.76532 46
50.82449 45
50.88365 47
50.94282 38
51.00198 53
51.06115 70
51.12031 94
51.17947 132
51.23864 310
51.29780 761
51.35696 2066
51.41613 2922
51.47529 3051
51.53446 1784
51.59362 439
51.65279 198
51.71195 139
51.77111 75
51.83028 53
51.88944 57
51.94861 41
52.00777 33
52.06694 23
52.12610 35
52.18526 42
52.24443 41
52.30359 35
52.36275 23
52.42192 37
52.48108 43
52.54025 15
52.59941 28
52.65858 39
52.71774 22
52.77690 26
52.83607 24
52.89523 18
52.95439 21
53.01356 36
53.07272 33
53.13189 39
53.19105 30
53.25022 8
53.30938 26
53.36854 34
53.42771 16
53.48687 16
53.54604 23
53.60520 23
53.66436 26
53.72353 32
53.78269 20
53.84186 21
53.90102 25
53.96019 21
54.01935 8
54.07851 29
54.13768 58
54.19684 49
54.25601 15
54.31517 15
54.37434 50
54.43350 68
54.49266 72
54.55183 59
54.61099 49
54.67015 53
54.72932 68
54.78848 50
54.84765 49
54.90681 49
54.96598 69
55.02514 33
55.08430 11
55.14347 9
55.20263 37
55.26179 34
55.32096 19
55.38012 20
55.43929 32
55.49845 21
55.55762 19
55.61678 16
55.67594 15
55.73511 18
55.79427 14
55.85343 27
55.91260 41
55.97176 35
56.03093 14
56.09009 8
56.14926 18
56.20842 37
56.26759 26
56.32675 35
56.38591 35
56.44508 22
56.50424 22
56.56341 23
56.62257 12
56.68174 20
56.74090 33
56.80006 13
56.85923 28
56.91839 18
56.97755 24
57.03672 10
57.09588 11
57.15505 20
57.21421 13
57.27338 18
57.33254 29
57.39170 27
57.45087 20
57.51003 24
57.56919 18
57.62836 20
57.68752 35
57.74669 31
57.80585 24
57.86502 24
57.92418 28
57.98334 7
58.04251 20
58.10167 23
58.16083 32
58.22000 9
58.27916 16
58.33833 17
58.39749 26
58.45666 26
58.51582 7
58.57498 26
58.63415 23
58.69331 15
58.75248 2
58.81164 3
58.87081 4
58.92997 16
58.98914 16
59.04830 10
59.10746 8
59.16663 28
59.22579 31
59.28495 18
59.34412 19
59.40328 24
59.46245 18
59.52161 19
59.58078 10
59.63994 11
59.69910 4
59.75827 0
59.81743 17
59.87659 28
59.93576 38
59.99492 16
60.05409 10
60.11325 10
60.17242 14
60.23158 19
60.29074 25
60.34991 20
60.40907 10
60.46823 5
60.52740 6
60.58656 32
60.64573 28
60.70489 19
60.76406 20
60.82322 20
60.88238 12
60.94155 19
61.00071 20
61.05987 17
61.11904 14
61.17820 9
61.23737 21
61.29653 14
61.35570 2
61.41486 13
61.47403 18
61.53319 15
61.59235 13
61.65152 15
61.71068 36
61.76985 33
61.82901 42
61.88818 17
61.94734 12
62.00650 6
62.06567 7
62.12483 24
62.18399 29
62.24316 49
62.30232 18
62.36149 22
62.42065 2
62.47982 14
62.53898 25
62.59814 23
62.65731 18
62.71647 34
62.77563 38
62.83480 54
62.89396 40
62.95313 35
63.01229 41
63.07146 44
63.13062 31
63.18978 29
63.24895 20
63.30811 25
63.36727 34
63.42644 27
63.48560 16
63.54477 18
63.60393 9
63.66310 14
63.72226 15
63.78142 32
63.84059 22
63.89975 24
63.95892 18
64.01808 19
64.07724 32
64.13641 7
64.19558 8
64.25474 26
64.31390 41
64.37307 18
64.43223 22
64.49140 19
64.55056 41
64.60972 39
64.66889 21
64.72805 22
64.78721 33
64.84638 36
64.90554 31
64.96471 11
65.02387 8
65.08303 20
65.14220 40
65.20137 44
65.26052 33
65.31969 14
65.37886 7
65.43802 11
65.49718 23
65.55635 5
65.61551 1
65.67468 17
65.73384 20
65.79300 32
65.85217 19
65.91133 21
65.97049 27
66.02966 19
66.08882 18
66.14799 28
66.20716 29
66.26631 38
66.32548 16
66.38465 27
66.44381 31
66.50297 23
66.56214 14
66.62130 20
66.68047 33
66.73963 30
66.79879 20
66.85796 29
66.91713 24
66.97628 28
67.03545 20
67.09462 16
67.15378 30
67.21294 22
67.27211 22
67.33127 35
67.39044 33
67.4496  36
67.50876 23
67.56793 3
67.62709 17
67.68625 22
67.74542 30
67.80458 48
67.86375 33
67.92291 21
67.98207 19
68.04124 6
68.10041 20
68.15956 21
68.21873 20
68.27790 30
68.33706 16
68.39622 23
68.45539 22
68.51455 50
68.57372 44
68.63288 44
68.69204 28
68.75121 20
68.81037 33
68.86954 44
68.92870 48
68.98786 34
69.04703 29
69.10620 9
69.16535 22
69.22452 29
69.28369 38
69.34285 34
69.40201 26
69.46118 7
69.52034 23
69.57951 42
69.63867 45
69.69783 27
69.75700 35
69.81617 47
69.87532 16
69.93449 24
69.99366 46
70.05282 44
70.11198 29
70.17115 20
70.23031 34
70.28948 26
70.34864 17
70.40780 14
70.46697 35
70.52613 38
70.58529 14
70.64446 17
70.70362 18
70.76279 27
70.82195 38
70.88111 26
70.94028 21
70.99945 18
71.05861 13
71.11777 24
71.17694 25
71.23610 53
71.29527 33
71.35443 40
71.41359 29
71.47276 22
71.53192 24
71.59108 15
71.65025 15
71.70941 23
71.76858 20
71.82774 19
71.88690 13
71.94607 37
72.00524 34
72.0644  25
72.12356 21
72.18273 8
72.24189 25
72.30105 33
72.36022 41
72.41938 19
72.47855 24
72.53771 20
72.59687 29
72.65604 28
72.71521 21
72.77436 18
72.83353 0
72.8927  8
72.95186 35
73.01102 40
73.07019 28
73.12935 47
73.18852 26
73.24768 6
73.30684 7
73.36601 27
73.42517 42
73.48434 28
73.54350 20
73.60266 9
73.66183 0
73.72100 14
73.78015 42
73.83932 41
73.89849 27
73.95765 10
74.01681 12
74.07598 15
74.13514 34
74.19431 33
74.25347 26
74.31263 22
74.37180 10
74.43096 6
74.49012 25
74.54929 22
74.60845 26
74.66762 41
74.72678 16
74.78595 5
74.84511 26
74.90428 35
74.96344 38
75.02260 29
75.08177 26
75.14093 36
75.20009 42
75.25926 51
75.31842 37
75.37759 41
75.43675 90
75.49591 133
75.55508 548
75.61425 1181
75.67340 966
75.73257 856
75.79174 760
75.85090 353
75.91007 150
75.96923 92
76.02839 79
76.08756 65
76.14672 31
76.20588 36
76.26505 12
76.32421 25
76.38338 47
76.44254 22
76.50170 39
76.56087 12
76.62004 3
76.67919 12
76.73836 19
76.79753 34
76.85669 29
76.91585 5
76.97502 14
77.03418 26
77.09335 20
77.15251 36
77.21167 31
77.27084 15
77.33000 6
77.38916 21
77.44833 19
77.5075  11
77.56666 21
77.62582 12
77.68499 39
77.74415 35
77.80332 13
77.86248 13
77.92164 10
77.98081 21
78.03997 19
78.09913 2
78.15830 30
78.21746 24
78.27663 13
78.3358  31
78.39495 26
78.45412 35
78.51329 30
78.57245 23
78.63161 19
78.69078 7
78.74994 32
78.80911 17
78.86827 17
78.92743 35
78.98660 23
79.04576 8
79.10492 22
79.16409 24
79.22325 20
79.28242 28
79.34158 40
79.40074 35
79.45991 25
79.51908 25
79.57823 24
79.63740 15
79.69657 37
79.75573 33
79.81489 23
79.87406 26
79.93322 23
79.99239 29
80.05155 33
80.11071 24
80.16988 26
80.22905 31
80.28820 24
80.34737 27
80.40654 9
80.46570 13
80.52486 40
80.58403 35
80.64319 43
80.70236 40
80.76152 9
80.82068 12
80.87985 13
80.93901 6
80.99818 22
81.05734 33
81.11650 23
81.17567 35
81.23484 31
81.29399 17
81.35316 37
81.41233 39
81.47149 31
81.53065 44
81.58982 18
81.64898 22
81.70815 21
81.76731 14
81.82647 24
81.88564 18
81.94480 25
82.00396 33
82.06313 11
82.12229 27
82.18146 39
82.24062 36
82.29978 24
82.35895 25
82.41812 39
82.47728 28
82.53644 29
82.59561 33
82.65477 22
82.71393 29
82.77310 34
82.83226 15
82.89143 31
82.95059 37
83.00975 38
83.06892 34
83.12809 23
83.18725 34
83.24641 36
83.30558 32
83.36474 26
83.42391 29
83.48307 22
83.54223 29
83.60140 30
83.66056 9
83.71972 15
83.77889 31
83.83805 24
83.89722 40
83.95638 47
84.01554 34
84.07471 24
84.13388 23
84.19303 37
84.25220 29
84.31137 46
84.37053 39
84.42969 27
84.48886 29
84.54802 29
84.60719 26
84.66635 39
84.72551 24
84.78468 12
84.84384 11
84.90300 15
84.96217 21
85.02133 49
85.08050 41
85.13966 37
85.19883 18
85.25799 16
85.31716 25
85.37632 17
85.43548 8
85.49465 32
85.55381 24
85.61298 25
85.67214 23
85.73130 8
85.79047 26
85.84964 34
85.90879 11
85.96796 27
86.02713 16
86.08629 0
86.14545 30
86.20462 29
86.26378 16
86.32295 33
86.38211 20
86.44127 7
86.50044 21
86.55960 17
86.61876 14
86.67793 17
86.73709 13
86.79626 19
86.85542 21
86.91458 17
86.97375 21
87.03292 27
87.09207 13
87.15124 12
87.21041 15
87.26957 1
87.32873 11
87.38790 12
87.44706 19
87.50623 16
87.56539 15
87.62455 14
87.68372 13
87.74288 6
87.80204 2
87.86121 14
87.92038 14
87.97954 11
88.03871 7
88.09787 22
88.15703 10
88.21620 19
88.27536 12
88.33452 20
88.39369 33
88.45285 15
88.51202 9
88.57118 22
88.63034 16
88.68951 8
88.74868 17
88.80783 10
88.86700 14
88.92617 25
88.98533 46
89.04449 24
89.10366 13
89.16282 13
89.22199 17
89.28115 14
89.34031 9
89.39948 15
89.45864 38
89.51780 28
89.57697 11
89.63613 3
89.69530 3
89.75446 2
89.81362 8
89.87279 28
89.93196 32
89.99111 30