File: XRD/690-02.txt
?
20.0     0
20.05916 6
20.11832 13
20.17749 14
20.23665 18
20.29582 9
20.35498 19
20.41414 28
20.47331 23
20.53247 16
20.59164 17
20.65080 28
20.70996 16
20.76913 23
20.82829 29
20.88746 38
20.94662 30
21.00578 30
21.06495 24
21.12411 17
21.18328 21
21.24244 14
21.30161 29
21.36077 30
21.41993 33
21.47910 22
21.53826 15
21.59743 28
21.65659 38
21.71575 22
21.77492 35
21.83408 31
21.89325 35
21.95241 24
22.01158 19
22.07074 39
22.12990 26
22.18907 38
22.24823 39
22.3074  18
22.36656 31
22.42572 33
22.48489 26
22.54405 21
22.60322 42
22.66238 31
22.72154 44
22.78071 40
22.83987 22
22.89904 46
22.95820 37
23.01736 21
23.07653 31
23.13569 31
23.19486 33
23.25402 26
23.31318 39
23.37235 41
23.43151 22
23.49068 21
23.54984 36
23.60900 39
23.66817 26
23.72733 23
23.78650 25
23.84566 20
23.90483 29
23.96399 37
24.02315 26
24.08232 38
24.14148 53
24.20065 60
24.25981 93
24.31897 132
24.37814 197
24.43730 246
24.49647 176
24.55563 74
24.61479 53
24.67396 51
24.73312 41
24.79229 14
24.85145 16
24.91062 37
24.96978 37
25.02894 28
25.08811 59
25.14727 39
25.20644 21
25.26560 31
25.32476 31
25.38393 40
25.44309 28
25.50226 40
25.56142 26
25.62058 23
25.67975 19
25.73891 27
25.79808 44
25.85724 35
25.91640 33
25.97557 19
26.03473 44
26.09390 20
26.15306 11
26.21223 39
26.27139 52
26.33055 19
26.38972 8
26.44888 41
26.50805 41
26.56721 30
26.62637 28
26.68554 34
26.74470 34
26.80387 58
26.86303 26
26.92219 35
26.98136 35
27.04052 44
27.09969 23
27.15885 33
27.21801 36
27.27718 32
27.33634 31
27.39551 52
27.45467 46
27.51384 32
27.57300 41
27.63216 48
27.69133 18
27.75049 33
27.80966 34
27.86882 49
27.92798 27
27.98715 45
28.04631 54
28.10548 47
28.16464 40
28.22380 32
28.28297 44
28.34213 48
28.4013  63
28.46046 57
28.51963 30
28.57879 51
28.63795 31
28.69712 34
28.75628 46
28.81545 38
28.87461 43
28.93377 69
28.99294 41
29.05210 43
29.11127 55
29.17043 32
29.22959 3
29.28876 45
29.34792 38
29.40709 49
29.46625 50
29.52541 47
29.58458 31
29.64374 50
29.70291 51
29.76207 57
29.82123 48
29.88040 35
29.93956 71
29.99873 60
30.05789 53
30.11706 65
30.17622 33
30.23538 54
30.29455 53
30.35371 56
30.41288 32
30.47204 9
30.53120 34
30.59037 43
30.64953 29
30.7087  62
30.76786 49
30.82702 20
30.88619 34
30.94535 48
31.00452 35
31.06368 35
31.12285 47
31.18201 21
31.24117 24
31.30034 33
31.35950 39
31.41867 19
31.47783 36
31.53699 45
31.59616 39
31.65532 21
31.71449 31
31.77365 16
31.83281 30
31.89198 25
31.95114 43
32.01031 47
32.06947 22
32.12863 31
32.18780 34
32.24696 16
32.30613 25
32.36529 33
32.42446 26
32.48362 40
32.54278 33
32.60195 38
32.66111 28
32.72028 20
32.77944 27
32.83860 33
32.89777 60
32.95693 29
33.01610 17
33.07526 55
33.13443 54
33.19359 91
33.25275 144
33.31192 200
33.37108 356
33.43024 498
33.48941 432
33.54857 331
33.60774 204
33.66690 111
33.72607 77
33.78523 50
33.84439 37
33.90356 25
33.96272 20
34.02188 40
34.08105 24
34.14021 11
34.19938 31
34.25854 25
34.31771 20
34.37687 13
34.43603 22
34.49520 25
34.55436 18
34.61353 16
34.67269 21
34.73186 23
34.79102 19
34.85018 8
34.90935 26
34.96851 28
35.02767 20
35.08684 58
35.14600 68
35.20517 64
35.26433 45
35.32350 50
35.38266 46
35.44183 48
35.50099 29
35.56015 29
35.61932 30
35.67848 34
35.73764 25
35.79681 35
35.85597 62
35.91514 65
35.97430 88
36.03347 79
36.09263 55
36.15179 63
36.21096 37
36.27012 27
36.32928 35
36.38845 37
36.44761 21
36.50678 11
36.56594 20
36.62511 34
36.68427 30
36.74343 13
36.80260 27
36.86176 23
36.92092 28
36.98009 22
37.03926 28
37.09842 26
37.15758 28
37.21675 18
37.27591 31
37.33507 18
37.39424 36
37.45340 45
37.51257 31
37.57173 20
37.63090 18
37.69006 34
37.74922 25
37.80839 31
37.86755 37
37.92672 28
37.98588 29
38.04504 38
38.10421 28
38.16337 0
38.22254 23
38.28170 47
38.34087 21
38.40003 10
38.45919 29
38.51836 35
38.57752 21
38.63668 25
38.69585 23
38.75501 15
38.81418 16
38.87334 22
38.93251 30
38.99167 25
39.05083 35
39.11000 22
39.16916 21
39.22832 28
39.28749 7
39.34665 15
39.40582 54
39.46498 38
39.52415 5
39.58331 56
39.64247 55
39.70164 13
39.76080 26
39.81997 54
39.87913 41
39.93830 19
39.99746 16
40.05662 22
40.11579 40
40.17495 19
40.23411 18
40.29328 24
40.35244 14
40.41161 17
40.47077 19
40.52994 9
40.58910 19
40.64827 13
40.70743 14
40.76659 21
40.82576 5
40.88492 12
40.94408 36
41.00325 16
41.06241 11
41.12158 65
41.18074 72
41.23991 75
41.29907 85
41.35823 89
41.4174  49
41.47656 17
41.53572 42
41.59489 50
41.65405 24
41.71322 4
41.77238 7
41.83155 12
41.89071 17
41.94987 17
42.00904 11
42.06820 17
42.12737 0
42.18653 18
42.24570 17
42.30486 23
42.36402 22
42.42319 6
42.48235 32
42.54151 37
42.60068 24
42.65984 27
42.71901 10
42.77817 23
42.83734 26
42.89650 29
42.95566 23
43.01483 30
43.07399 36
43.13316 36
43.19232 27
43.25148 19
43.31065 35
43.36981 51
43.42898 48
43.48814 63
43.54731 87
43.60647 123
43.66563 253
43.7248  515
43.78396 1069
43.84312 4623
43.90229 11999
43.96145 11597
44.02062 5760
44.07978 1073
44.13895 466
44.19811 165
44.25727 100
44.31644 123
44.37560 93
44.43477 41
44.49393 50
44.55310 66
44.61226 32
44.67142 18
44.73059 27
44.78975 22
44.84891 27
44.90808 38
44.96724 17
45.02641 19
45.08557 19
45.14474 15
45.20390 19
45.26306 31
45.32223 13
45.38139 1
45.44055 22
45.49972 34
45.55888 18
45.61805 10
45.67721 14
45.73638 10
45.79554 0
45.85471 10
45.91387 19
45.97303 19
46.0322  20
46.09136 13
46.15052 9
46.20969 6
46.26885 13
46.32802 32
46.38718 18
46.44635 7
46.50551 7
46.56467 23
46.62384 11
46.68300 7
46.74217 9
46.80133 24
46.8605  12
46.91966 2
46.97882 10
47.03799 25
47.09715 19
47.15631 3
47.21548 23
47.27464 24
47.33381 12
47.39297 29
47.45214 27
47.51130 12
47.57046 33
47.62963 23
47.68879 8
47.74795 26
47.80712 21
47.86628 25
47.92545 41
47.98461 18
48.04378 6
48.10294 34
48.16210 41
48.22127 7
48.28043 13
48.3396  24
48.39876 28
48.45792 34
48.51709 27
48.57625 19
48.63542 17
48.69458 24
48.75375 24
48.81291 30
48.87207 25
48.93124 25
48.99040 33
49.04956 28
49.10873 25
49.1679  13
49.22706 17
49.28622 33
49.34539 47
49.40455 41
49.46371 29
49.52288 40
49.58204 45
49.64121 42
49.70037 21
49.75954 14
49.81870 36
49.87786 66
49.93703 74
49.99619 73
50.05535 81
50.11452 71
50.17368 42
50.23285 37
50.29201 48
50.35118 50
50.41034 43
50.46950 33
50.52867 36
50.58783 57
50.64699 70
50.70616 58
50.76532 70
50.82449 89
50.88365 150
50.94282 227
51.00198 475
51.06115 1054
51.12031 2104
51.17947 2734
51.23864 2408
51.29780 1141
51.35696 318
51.41613 124
51.47529 74
51.53446 75
51.59362 61
51.65279 57
51.71195 28
51.77111 11
51.83028 19
51.88944 43
51.94861 38
52.00777 38
52.06694 20
52.12610 19
52.18526 31
52.24443 39
52.30359 27
52.36275 31
52.42192 31
52.48108 37
52.54025 29
52.59941 25
52.65858 14
52.71774 20
52.77690 25
52.83607 22
52.89523 41
52.95439 35
53.01356 14
53.07272 24
53.13189 28
53.19105 27
53.25022 25
53.30938 17
53.36854 25
53.42771 28
53.48687 12
53.54604 7
53.60520 21
53.66436 31
53.72353 26
53.78269 16
53.84186 16
53.90102 14
53.96019 17
54.01935 15
54.07851 21
54.13768 26
54.19684 27
54.25601 38
54.31517 58
54.37434 74
54.43350 92
54.49266 100
54.55183 134
54.61099 170
54.67015 180
54.72932 142
54.78848 90
54.84765 46
54.90681 32
54.96598 38
55.02514 29
55.08430 29
55.14347 15
55.20263 9
55.26179 21
55.32096 11
55.38012 27
55.43929 35
55.49845 11
55.55762 6
55.61678 17
55.67594 37
55.73511 26
55.79427 10
55.85343 22
55.91260 20
55.97176 18
56.03093 15
56.09009 25
56.14926 31
56.20842 24
56.26759 9
56.32675 12
56.38591 16
56.44508 26
56.50424 39
56.56341 28
56.62257 29
56.68174 19
56.74090 29
56.80006 36
56.85923 12
56.91839 24
56.97755 45
57.03672 30
57.09588 18
57.15505 8
57.21421 27
57.27338 14
57.33254 16
57.39170 11
57.45087 28
57.51003 27
57.56919 32
57.62836 26
57.68752 19
57.74669 7
57.80585 30
57.86502 24
57.92418 22
57.98334 30
58.04251 22
58.10167 21
58.16083 22
58.22000 48
58.27916 58
58.33833 60
58.39749 28
58.45666 4
58.51582 21
58.57498 32
58.63415 35
58.69331 28
58.75248 35
58.81164 26
58.87081 27
58.92997 32
58.98914 18
59.04830 17
59.10746 17
59.16663 27
59.22579 33
59.28495 32
59.34412 33
59.40328 33
59.46245 26
59.52161 43
59.58078 46
59.63994 28
59.69910 19
59.75827 15
59.81743 27
59.87659 32
59.93576 50
59.99492 37
60.05409 35
60.11325 36
60.17242 41
60.23158 27
60.29074 25
60.34991 22
60.40907 31
60.46823 44
60.52740 29
60.58656 17
60.64573 45
60.70489 45
60.76406 36
60.82322 20
60.88238 20
60.94155 30
61.00071 23
61.05987 13
61.11904 25
61.17820 43
61.23737 49
61.29653 30
61.35570 32
61.41486 23
61.47403 16
61.53319 27
61.59235 40
61.65152 29
61.71068 22
61.76985 22
61.82901 43
61.88818 57
61.94734 31
62.00650 24
62.06567 12
62.12483 34
62.18399 37
62.24316 52
62.30232 28
62.36149 25
62.42065 22
62.47982 26
62.53898 27
62.59814 46
62.65731 46
62.71647 28
62.77563 42
62.83480 65
62.89396 57
62.95313 36
63.01229 52
63.07146 66
63.13062 73
63.18978 64
63.24895 61
63.30811 43
63.36727 47
63.42644 37
63.48560 28
63.54477 10
63.60393 28
63.66310 17
63.72226 22
63.78142 30
63.84059 49
63.89975 37
63.95892 20
64.01808 19
64.07724 22
64.13641 45
64.19558 41
64.25474 31
64.31390 30
64.37307 51
64.43223 36
64.49140 22
64.55056 27
64.60972 34
64.66889 37
64.72805 38
64.78721 37
64.84638 28
64.90554 20
64.96471 26
65.02387 12
65.08303 30
65.14220 38
65.20137 36
65.26052 24
65.31969 19
65.37886 27
65.43802 11
65.49718 26
65.55635 26
65.61551 38
65.67468 16
65.73384 27
65.79300 32
65.85217 19
65.91133 23
65.97049 4
66.02966 12
66.08882 20
66.14799 38
66.20716 23
66.26631 21
66.32548 24
66.38465 24
66.44381 15
66.50297 4
66.56214 17
66.62130 29
66.68047 21
66.73963 9
66.79879 18
66.85796 21
66.91713 31
66.97628 30
67.03545 30
67.09462 23
67.15378 27
67.21294 24
67.27211 33
67.33127 41
67.39044 30
67.4496  38
67.50876 38
67.56793 40
67.62709 28
67.68625 6
67.74542 14
67.80458 25
67.86375 32
67.92291 37
67.98207 41
68.04124 25
68.10041 23
68.15956 17
68.21873 23
68.27790 26
68.33706 17
68.39622 24
68.45539 37
68.51455 38
68.57372 35
68.63288 32
68.69204 31
68.75121 31
68.81037 31
68.86954 29
68.92870 26
68.98786 30
69.04703 20
69.10620 33
69.16535 35
69.22452 25
69.28369 15
69.34285 13
69.40201 26
69.46118 40
69.52034 49
69.57951 36
69.63867 25
69.69783 21
69.75700 20
69.81617 47
69.87532 45
69.93449 31
69.99366 14
70.05282 23
70.11198 33
70.17115 37
70.23031 48
70.28948 23
70.34864 32
70.40780 24
70.46697 10
70.52613 21
70.58529 25
70.64446 34
70.70362 46
70.76279 39
70.82195 36
70.88111 25
70.94028 14
70.99945 31
71.05861 30
71.11777 31
71.17694 19
71.23610 49
71.29527 49
71.35443 36
71.41359 13
71.47276 2
71.53192 20
71.59108 28
71.65025 31
71.70941 36
71.76858 28
71.82774 29
71.88690 26
71.94607 27
72.00524 17
72.0644  19
72.12356 35
72.18273 28
72.24189 28
72.30105 29
72.36022 22
72.41938 18
72.47855 31
72.53771 44
72.59687 38
72.65604 31
72.71521 16
72.77436 40
72.83353 46
72.8927  32
72.95186 43
73.01102 23
73.07019 15
73.12935 21
73.18852 29
73.24768 27
73.30684 20
73.36601 29
73.42517 26
73.48434 32
73.54350 34
73.60266 19
73.66183 28
73.72100 32
73.78015 15
73.83932 20
73.89849 21
73.95765 20
74.01681 28
74.07598 14
74.13514 11
74.19431 15
74.25347 28
74.31263 30
74.37180 30
74.43096 33
74.49012 16
74.54929 32
74.60845 27
74.66762 14
74.72678 32
74.78595 33
74.84511 40
74.90428 42
74.96344 48
75.02260 65
75.08177 127
75.14093 275
75.20009 475
75.25926 595
75.31842 609
75.37759 421
75.43675 173
75.49591 108
75.55508 66
75.61425 29
75.67340 20
75.73257 13
75.79174 31
75.85090 30
75.91007 50
75.96923 45
76.02839 23
76.08756 30
76.14672 15
76.20588 11
76.26505 7
76.32421 13
76.38338 36
76.44254 41
76.50170 32
76.56087 39
76.62004 24
76.67919 16
76.73836 21
76.79753 18
76.85669 19
76.91585 37
76.97502 31
77.03418 25
77.09335 16
77.15251 22
77.21167 24
77.27084 16
77.33000 15
77.38916 20
77.44833 22
77.5075  21
77.56666 32
77.62582 32
77.68499 28
77.74415 17
77.80332 15
77.86248 11
77.92164 22
77.98081 40
78.03997 21
78.09913 26
78.15830 37
78.21746 38
78.27663 46
78.3358  26
78.39495 28
78.45412 20
78.51329 23
78.57245 45
78.63161 40
78.69078 23
78.74994 37
78.80911 19
78.86827 26
78.92743 31
78.98660 25
79.04576 38
79.10492 25
79.16409 19
79.22325 34
79.28242 30
79.34158 34
79.40074 27
79.45991 23
79.51908 43
79.57823 19
79.63740 13
79.69657 23
79.75573 28
79.81489 26
79.87406 51
79.93322 52
79.99239 31
80.05155 35
80.11071 6
80.16988 15
80.22905 33
80.28820 17
80.34737 34
80.40654 30
80.46570 38
80.52486 33
80.58403 18
80.64319 17
80.70236 27
80.76152 22
80.82068 31
80.87985 27
80.93901 42
80.99818 33
81.05734 6
81.11650 23
81.17567 22
81.23484 27
81.29399 45
81.35316 34
81.41233 33
81.47149 34
81.53065 24
81.58982 23
81.64898 20
81.70815 14
81.76731 24
81.82647 20
81.88564 27
81.94480 39
82.00396 15
82.06313 28
82.12229 39
82.18146 22
82.24062 20
82.29978 17
82.35895 19
82.41812 20
82.47728 15
82.53644 15
82.59561 24
82.65477 27
82.71393 27
82.77310 18
82.83226 19
82.89143 16
82.95059 21
83.00975 43
83.06892 35
83.12809 13
83.18725 31
83.24641 21
83.30558 28
83.36474 36
83.42391 29
83.48307 31
83.54223 24
83.60140 29
83.66056 42
83.71972 36
83.77889 37
83.83805 41
83.89722 23
83.95638 37
84.01554 37
84.07471 33
84.13388 34
84.19303 4
84.25220 30
84.31137 28
84.37053 21
84.42969 33
84.48886 28
84.54802 29
84.60719 39
84.66635 27
84.72551 13
84.78468 23
84.84384 21
84.90300 46
84.96217 45
85.02133 28
85.08050 31
85.13966 37
85.19883 10
85.25799 24
85.31716 45
85.37632 27
85.43548 34
85.49465 37
85.55381 29
85.61298 19
85.67214 29
85.73130 17
85.79047 25
85.84964 55
85.90879 41
85.96796 19
86.02713 28
86.08629 37
86.14545 31
86.20462 29
86.26378 27
86.32295 17
86.38211 21
86.44127 23
86.50044 30
86.55960 31
86.61876 44
86.67793 44
86.73709 20
86.79626 31
86.85542 39
86.91458 17
86.97375 18
87.03292 37
87.09207 36
87.15124 24
87.21041 49
87.26957 26
87.32873 17
87.38790 22
87.44706 17
87.50623 44
87.56539 43
87.62455 29
87.68372 37
87.74288 27
87.80204 17
87.86121 22
87.92038 24
87.97954 35
88.03871 40
88.09787 36
88.15703 34
88.21620 36
88.27536 28
88.33452 27
88.39369 16
88.45285 38
88.51202 28
88.57118 16
88.63034 22
88.68951 23
88.74868 21
88.80783 31
88.86700 28
88.92617 27
88.98533 19
89.04449 18
89.10366 27
89.16282 38
89.22199 26
89.28115 27
89.34031 47
89.39948 37
89.45864 20
89.51780 36
89.57697 43
89.63613 19
89.69530 21
89.75446 36
89.81362 23
89.87279 45
89.93196 43
89.99111 42