File: XRD/690-07.txt
?
20.0     9
20.05916 15
20.11832 26
20.17749 46
20.23665 48
20.29582 36
20.35498 38
20.41414 25
20.47331 25
20.53247 24
20.59164 24
20.65080 23
20.70996 18
20.76913 34
20.82829 36
20.88746 49
20.94662 26
21.00578 32
21.06495 17
21.12411 27
21.18328 31
21.24244 14
21.30161 21
21.36077 30
21.41993 38
21.47910 29
21.53826 43
21.59743 30
21.65659 29
21.71575 35
21.77492 18
21.83408 31
21.89325 18
21.95241 25
22.01158 39
22.07074 32
22.12990 28
22.18907 28
22.24823 44
22.3074  29
22.36656 27
22.42572 27
22.48489 33
22.54405 13
22.60322 33
22.66238 36
22.72154 21
22.78071 30
22.83987 22
22.89904 29
22.95820 32
23.01736 54
23.07653 31
23.13569 32
23.19486 28
23.25402 28
23.31318 29
23.37235 33
23.43151 41
23.49068 15
23.54984 22
23.60900 26
23.66817 46
23.72733 29
23.78650 35
23.84566 39
23.90483 44
23.96399 28
24.02315 35
24.08232 40
24.14148 49
24.20065 67
24.25981 89
24.31897 103
24.37814 124
24.43730 195
24.49647 230
24.55563 167
24.61479 92
24.67396 70
24.73312 46
24.79229 31
24.85145 20
24.91062 34
24.96978 17
25.02894 42
25.08811 31
25.14727 48
25.20644 47
25.26560 41
25.32476 27
25.38393 13
25.44309 56
25.50226 40
25.56142 31
25.62058 19
25.67975 31
25.73891 28
25.79808 22
25.85724 10
25.91640 45
25.97557 34
26.03473 14
26.09390 15
26.15306 21
26.21223 34
26.27139 16
26.33055 12
26.38972 21
26.44888 31
26.50805 24
26.56721 22
26.62637 45
26.68554 27
26.74470 14
26.80387 40
26.86303 37
26.92219 17
26.98136 10
27.04052 24
27.09969 19
27.15885 18
27.21801 34
27.27718 31
27.33634 27
27.39551 30
27.45467 12
27.51384 3
27.57300 36
27.63216 31
27.69133 19
27.75049 30
27.80966 24
27.86882 17
27.92798 23
27.98715 34
28.04631 27
28.10548 13
28.16464 34
28.22380 22
28.28297 34
28.34213 31
28.4013  25
28.46046 21
28.51963 33
28.57879 25
28.63795 26
28.69712 5
28.75628 23
28.81545 12
28.87461 19
28.93377 14
28.99294 30
29.05210 39
29.11127 14
29.17043 24
29.22959 20
29.28876 10
29.34792 41
29.40709 11
29.46625 16
29.52541 23
29.58458 10
29.64374 41
29.70291 6
29.76207 16
29.82123 39
29.88040 56
29.93956 56
29.99873 17
30.05789 20
30.11706 49
30.17622 63
30.23538 75
30.29455 59
30.35371 57
30.41288 52
30.47204 30
30.53120 42
30.59037 41
30.64953 47
30.7087  20
30.76786 28
30.82702 15
30.88619 32
30.94535 31
31.00452 16
31.06368 15
31.12285 26
31.18201 25
31.24117 11
31.30034 16
31.35950 21
31.41867 24
31.47783 34
31.53699 17
31.59616 11
31.65532 18
31.71449 38
31.77365 35
31.83281 17
31.89198 15
31.95114 28
32.01031 36
32.06947 25
32.12863 21
32.18780 35
32.24696 29
32.30613 23
32.36529 53
32.42446 44
32.48362 23
32.54278 63
32.60195 32
32.66111 7
32.72028 31
32.77944 34
32.83860 48
32.89777 52
32.95693 12
33.01610 30
33.07526 47
33.13443 33
33.19359 63
33.25275 65
33.31192 60
33.37108 101
33.43024 131
33.48941 187
33.54857 244
33.60774 189
33.66690 156
33.72607 89
33.78523 36
33.84439 68
33.90356 28
33.96272 19
34.02188 52
34.08105 58
34.14021 45
34.19938 26
34.25854 34
34.31771 44
34.37687 27
34.43603 28
34.49520 49
34.55436 21
34.61353 25
34.67269 42
34.73186 45
34.79102 64
34.85018 36
34.90935 37
34.96851 38
35.02767 39
35.08684 44
35.14600 60
35.20517 68
35.26433 59
35.32350 35
35.38266 68
35.44183 81
35.50099 73
35.56015 94
35.61932 130
35.67848 151
35.73764 119
35.79681 77
35.85597 105
35.91514 80
35.97430 86
36.03347 148
36.09263 182
36.15179 168
36.21096 142
36.27012 122
36.32928 58
36.38845 34
36.44761 51
36.50678 53
36.56594 47
36.62511 44
36.68427 56
36.74343 32
36.80260 46
36.86176 44
36.92092 39
36.98009 66
37.03926 104
37.09842 139
37.15758 255
37.21675 501
37.27591 441
37.33507 185
37.39424 113
37.45340 63
37.51257 27
37.57173 65
37.63090 52
37.69006 52
37.74922 31
37.80839 30
37.86755 42
37.92672 53
37.98588 26
38.04504 35
38.10421 57
38.16337 22
38.22254 30
38.28170 34
38.34087 24
38.40003 33
38.45919 31
38.51836 36
38.57752 37
38.63668 25
38.69585 38
38.75501 32
38.81418 32
38.87334 19
38.93251 27
38.99167 30
39.05083 24
39.11000 44
39.16916 36
39.22832 17
39.28749 27
39.34665 40
39.40582 42
39.46498 24
39.52415 32
39.58331 54
39.64247 50
39.70164 53
39.76080 48
39.81997 29
39.87913 14
39.93830 6
39.99746 23
40.05662 41
40.11579 21
40.17495 8
40.23411 18
40.29328 13
40.35244 14
40.41161 29
40.47077 15
40.52994 0
40.58910 4
40.64827 7
40.70743 5
40.76659 16
40.82576 1
40.88492 8
40.94408 9
41.00325 12
41.06241 6
41.12158 11
41.18074 11
41.23991 0
41.29907 15
41.35823 24
41.4174  20
41.47656 17
41.53572 22
41.59489 17
41.65405 12
41.71322 7
41.77238 4
41.83155 2
41.89071 4
41.94987 3
42.00904 1
42.06820 1
42.12737 0
42.18653 12
42.24570 7
42.30486 13
42.36402 14
42.42319 14
42.48235 33
42.54151 24
42.60068 23
42.65984 17
42.71901 31
42.77817 33
42.83734 28
42.89650 29
42.95566 20
43.01483 32
43.07399 61
43.13316 61
43.19232 99
43.25148 267
43.31065 325
43.36981 165
43.42898 93
43.48814 79
43.54731 110
43.60647 177
43.66563 299
43.7248  621
43.78396 1764
43.84312 9574
43.90229 19246
43.96145 10650
44.02062 3081
44.07978 683
44.13895 245
44.19811 261
44.25727 190
44.31644 61
44.37560 49
44.43477 80
44.49393 53
44.55310 68
44.61226 76
44.67142 35
44.73059 54
44.78975 81
44.84891 30
44.90808 31
44.96724 64
45.02641 51
45.08557 32
45.14474 53
45.20390 55
45.26306 12
45.32223 24
45.38139 33
45.44055 29
45.49972 54
45.55888 32
45.61805 18
45.67721 46
45.73638 63
45.79554 33
45.85471 15
45.91387 24
45.97303 21
46.0322  19
46.09136 42
46.15052 55
46.20969 29
46.26885 12
46.32802 27
46.38718 45
46.44635 36
46.50551 12
46.56467 10
46.62384 28
46.68300 41
46.74217 30
46.80133 26
46.8605  43
46.91966 33
46.97882 33
47.03799 36
47.09715 35
47.15631 31
47.21548 41
47.27464 43
47.33381 21
47.39297 25
47.45214 43
47.51130 46
47.57046 36
47.62963 18
47.68879 34
47.74795 27
47.80712 21
47.86628 31
47.92545 51
47.98461 34
48.04378 16
48.10294 12
48.16210 34
48.22127 45
48.28043 32
48.3396  47
48.39876 56
48.45792 41
48.51709 31
48.57625 25
48.63542 23
48.69458 18
48.75375 23
48.81291 41
48.87207 40
48.93124 36
48.99040 15
49.04956 20
49.10873 34
49.1679  35
49.22706 38
49.28622 46
49.34539 28
49.40455 39
49.46371 40
49.52288 21
49.58204 52
49.64121 48
49.70037 37
49.75954 25
49.81870 40
49.87786 62
49.93703 91
49.99619 65
50.05535 74
50.11452 108
50.17368 114
50.23285 102
50.29201 93
50.35118 57
50.41034 49
50.46950 62
50.52867 59
50.58783 69
50.64699 76
50.70616 87
50.76532 106
50.82449 182
50.88365 279
50.94282 399
51.00198 685
51.06115 4617
51.12031 10705
51.17947 7515
51.23864 3393
51.29780 1462
51.35696 534
51.41613 245
51.47529 140
51.53446 120
51.59362 106
51.65279 89
51.71195 53
51.77111 50
51.83028 67
51.88944 52
51.94861 44
52.00777 41
52.06694 42
52.12610 50
52.18526 44
52.24443 31
52.30359 23
52.36275 26
52.42192 30
52.48108 38
52.54025 27
52.59941 13
52.65858 27
52.71774 33
52.77690 29
52.83607 24
52.89523 46
52.95439 46
53.01356 38
53.07272 20
53.13189 17
53.19105 29
53.25022 45
53.30938 31
53.36854 11
53.42771 19
53.48687 21
53.54604 38
53.60520 42
53.66436 16
53.72353 31
53.78269 44
53.84186 46
53.90102 14
53.96019 15
54.01935 26
54.07851 10
54.13768 5
54.19684 28
54.25601 39
54.31517 21
54.37434 26
54.43350 25
54.49266 40
54.55183 44
54.61099 64
54.67015 63
54.72932 57
54.78848 62
54.84765 62
54.90681 35
54.96598 41
55.02514 31
55.08430 34
55.14347 27
55.20263 29
55.26179 25
55.32096 18
55.38012 16
55.43929 18
55.49845 36
55.55762 33
55.61678 20
55.67594 9
55.73511 28
55.79427 38
55.85343 28
55.91260 22
55.97176 24
56.03093 4
56.09009 9
56.14926 23
56.20842 36
56.26759 22
56.32675 2
56.38591 4
56.44508 24
56.50424 45
56.56341 22
56.62257 14
56.68174 20
56.74090 17
56.80006 25
56.85923 40
56.91839 47
56.97755 23
57.03672 24
57.09588 14
57.15505 39
57.21421 36
57.27338 46
57.33254 37
57.39170 32
57.45087 37
57.51003 38
57.56919 28
57.62836 31
57.68752 29
57.74669 20
57.80585 17
57.86502 30
57.92418 35
57.98334 28
58.04251 21
58.10167 24
58.16083 26
58.22000 22
58.27916 44
58.33833 42
58.39749 22
58.45666 25
58.51582 17
58.57498 22
58.63415 31
58.69331 23
58.75248 23
58.81164 31
58.87081 25
58.92997 17
58.98914 32
59.04830 28
59.10746 17
59.16663 33
59.22579 28
59.28495 16
59.34412 25
59.40328 32
59.46245 34
59.52161 34
59.58078 39
59.63994 23
59.69910 19
59.75827 25
59.81743 23
59.87659 31
59.93576 42
59.99492 33
60.05409 26
60.11325 6
60.17242 19
60.23158 24
60.29074 25
60.34991 33
60.40907 22
60.46823 19
60.52740 27
60.58656 39
60.64573 33
60.70489 28
60.76406 25
60.82322 11
60.88238 21
60.94155 20
61.00071 37
61.05987 29
61.11904 26
61.17820 21
61.23737 23
61.29653 32
61.35570 30
61.41486 27
61.47403 27
61.53319 12
61.59235 0
61.65152 31
61.71068 31
61.76985 34
61.82901 18
61.88818 13
61.94734 33
62.00650 57
62.06567 25
62.12483 25
62.18399 14
62.24316 28
62.30232 21
62.36149 25
62.42065 36
62.47982 56
62.53898 36
62.59814 41
62.65731 52
62.71647 83
62.77563 130
62.83480 152
62.89396 150
62.95313 84
63.01229 63
63.07146 43
63.13062 52
63.18978 46
63.24895 32
63.30811 34
63.36727 40
63.42644 42
63.48560 44
63.54477 41
63.60393 40
63.66310 18
63.72226 29
63.78142 20
63.84059 30
63.89975 35
63.95892 39
64.01808 24
64.07724 31
64.13641 8
64.19558 39
64.25474 29
64.31390 36
64.37307 26
64.43223 12
64.49140 29
64.55056 41
64.60972 29
64.66889 24
64.72805 16
64.78721 35
64.84638 44
64.90554 44
64.96471 36
65.02387 30
65.08303 7
65.14220 20
65.20137 38
65.26052 32
65.31969 28
65.37886 20
65.43802 15
65.49718 30
65.55635 29
65.61551 30
65.67468 19
65.73384 32
65.79300 34
65.85217 52
65.91133 23
65.97049 18
66.02966 14
66.08882 28
66.14799 30
66.20716 28
66.26631 23
66.32548 22
66.38465 31
66.44381 27
66.50297 30
66.56214 29
66.62130 7
66.68047 13
66.73963 25
66.79879 18
66.85796 18
66.91713 29
66.97628 28
67.03545 13
67.09462 32
67.15378 36
67.21294 37
67.27211 21
67.33127 17
67.39044 19
67.4496  10
67.50876 20
67.56793 29
67.62709 20
67.68625 11
67.74542 13
67.80458 29
67.86375 34
67.92291 35
67.98207 37
68.04124 40
68.10041 30
68.15956 5
68.21873 29
68.27790 30
68.33706 39
68.39622 39
68.45539 43
68.51455 33
68.57372 19
68.63288 28
68.69204 37
68.75121 47
68.81037 54
68.86954 38
68.92870 16
68.98786 6
69.04703 28
69.10620 37
69.16535 47
69.22452 48
69.28369 31
69.34285 17
69.40201 21
69.46118 21
69.52034 29
69.57951 13
69.63867 38
69.69783 46
69.75700 26
69.81617 43
69.87532 26
69.93449 32
69.99366 59
70.05282 27
70.11198 47
70.17115 13
70.23031 34
70.28948 34
70.34864 23
70.40780 60
70.46697 27
70.52613 38
70.58529 21
70.64446 24
70.70362 40
70.76279 36
70.82195 38
70.88111 25
70.94028 23
70.99945 28
71.05861 43
71.11777 39
71.17694 25
71.23610 32
71.29527 10
71.35443 15
71.41359 20
71.47276 39
71.53192 44
71.59108 24
71.65025 23
71.70941 26
71.76858 29
71.82774 46
71.88690 46
71.94607 28
72.00524 10
72.0644  3
72.12356 25
72.18273 24
72.24189 40
72.30105 54
72.36022 34
72.41938 26
72.47855 20
72.53771 8
72.59687 21
72.65604 40
72.71521 33
72.77436 50
72.83353 36
72.8927  18
72.95186 14
73.01102 20
73.07019 34
73.12935 33
73.18852 53
73.24768 18
73.30684 23
73.36601 17
73.42517 34
73.48434 44
73.54350 18
73.60266 26
73.66183 12
73.72100 24
73.78015 22
73.83932 26
73.89849 26
73.95765 36
74.01681 19
74.07598 18
74.13514 17
74.19431 26
74.25347 41
74.31263 37
74.37180 40
74.43096 47
74.49012 22
74.54929 33
74.60845 31
74.66762 19
74.72678 28
74.78595 19
74.84511 38
74.90428 38
74.96344 30
75.02260 56
75.08177 115
75.14093 251
75.20009 276
75.25926 185
75.31842 142
75.37759 95
75.43675 63
75.49591 31
75.55508 41
75.61425 43
75.67340 22
75.73257 22
75.79174 12
75.85090 20
75.91007 9
75.96923 6
76.02839 31
76.08756 28
76.14672 37
76.20588 28
76.26505 10
76.32421 8
76.38338 19
76.44254 30
76.50170 24
76.56087 22
76.62004 11
76.67919 11
76.73836 10
76.79753 14
76.85669 27
76.91585 32
76.97502 25
77.03418 12
77.09335 9
77.15251 15
77.21167 18
77.27084 27
77.33000 42
77.38916 24
77.44833 20
77.5075  26
77.56666 9
77.62582 26
77.68499 17
77.74415 8
77.80332 33
77.86248 32
77.92164 34
77.98081 26
78.03997 34
78.09913 31
78.15830 18
78.21746 18
78.27663 28
78.3358  25
78.39495 16
78.45412 22
78.51329 15
78.57245 20
78.63161 22
78.69078 23
78.74994 21
78.80911 39
78.86827 37
78.92743 22
78.98660 41
79.04576 33
79.10492 23
79.16409 24
79.22325 9
79.28242 38
79.34158 58
79.40074 53
79.45991 49
79.51908 16
79.57823 6
79.63740 18
79.69657 46
79.75573 39
79.81489 31
79.87406 36
79.93322 17
79.99239 30
80.05155 30
80.11071 29
80.16988 31
80.22905 32
80.28820 31
80.34737 36
80.40654 41
80.46570 35
80.52486 23
80.58403 32
80.64319 28
80.70236 27
80.76152 17
80.82068 40
80.87985 65
80.93901 35
80.99818 35
81.05734 25
81.11650 10
81.17567 30
81.23484 33
81.29399 27
81.35316 37
81.41233 28
81.47149 32
81.53065 49
81.58982 27
81.64898 40
81.70815 49
81.76731 32
81.82647 34
81.88564 33
81.94480 21
82.00396 33
82.06313 43
82.12229 34
82.18146 45
82.24062 49
82.29978 22
82.35895 28
82.41812 21
82.47728 27
82.53644 33
82.59561 42
82.65477 52
82.71393 42
82.77310 46
82.83226 40
82.89143 28
82.95059 24
83.00975 23
83.06892 42
83.12809 67
83.18725 53
83.24641 50
83.30558 29
83.36474 25
83.42391 44
83.48307 34
83.54223 32
83.60140 55
83.66056 41
83.71972 17
83.77889 46
83.83805 44
83.89722 41
83.95638 48
84.01554 35
84.07471 27
84.13388 43
84.19303 21
84.25220 27
84.31137 41
84.37053 41
84.42969 38
84.48886 51
84.54802 52
84.60719 46
84.66635 19
84.72551 18
84.78468 41
84.84384 34
84.90300 25
84.96217 25
85.02133 34
85.08050 19
85.13966 34
85.19883 36
85.25799 30
85.31716 32
85.37632 45
85.43548 22
85.49465 31
85.55381 44
85.61298 20
85.67214 32
85.73130 27
85.79047 22
85.84964 29
85.90879 25
85.96796 20
86.02713 43
86.08629 37
86.14545 33
86.20462 45
86.26378 34
86.32295 31
86.38211 31
86.44127 28
86.50044 31
86.55960 26
86.61876 28
86.67793 21
86.73709 20
86.79626 36
86.85542 27
86.91458 34
86.97375 53
87.03292 57
87.09207 26
87.15124 24
87.21041 29
87.26957 1
87.32873 20
87.38790 36
87.44706 27
87.50623 34
87.56539 49
87.62455 20
87.68372 32
87.74288 34
87.80204 10
87.86121 11
87.92038 34
87.97954 32
88.03871 31
88.09787 39
88.15703 53
88.21620 38
88.27536 49
88.33452 33
88.39369 7
88.45285 29
88.51202 23
88.57118 11
88.63034 36
88.68951 36
88.74868 26
88.80783 17
88.86700 29
88.92617 45
88.98533 13
89.04449 11
89.10366 37
89.16282 31
89.22199 20
89.28115 41
89.34031 37
89.39948 24
89.45864 21
89.51780 43
89.57697 34
89.63613 28
89.69530 22
89.75446 25
89.81362 14
89.87279 24
89.93196 36
89.99111 35