File: XRD/690-02.uxd
;content of D:\data\result\mecham\???\20231225-89741\690-02.raw - (Diffrac Plus V4 file)
_FILEVERSION = 3
_SAMPLE
_+SAMPLE
_USER = Lab Manager
_GONIOMETER_CODE = 21
_STAGE_CODE = 7
; Goniometer : D8 theta/theta, stage : Chi drive
_SAMPLE_CHANGER_CODE = 0
_ATTACHMENTS_CODE = 0
_GONIOMETER_RADIUS = 280
_MONOCHROMATOR = 0
; Incident beam monochromator : None
_BETA_FILTER = N
_ANALYZER_CODE = 0
; Received beam analyzer : None
_DATEMEASURED = 25-Dec-2023 11:03:11
_RUNTIME = 11.18979
_WL_UNIT = A
_WL1 = 1.5406
_WL2 = 1.54439
_WL3 = 1.39222
_WLRATIO = 0.5
_ANODE = Cu
_V4_INF_USER = Lab Manager
_V4_INF_CREATOR = V5Converter
_V4_INF_CREATOR_VERSION = 4.4.16.0

; Data for range 1
_DRIVE = COUPLED
_STEPTIME = 57.6
_STEPSIZE = 0.019721
_STEPMODE = C
_START = 20
_THETA = 10
_2THETA = 20
_KHI = 0
_PHI = 0
_DETECTORSLIT = out
_AUX1 = 0
_TIMESTARTED = 0
_KV = 40
_MA = 40
_RANGE_WL = 1.5406
_3DPLANE = 0
_V4_PSD2THETA = 9999
_V4_PSDCHANNEL1 = 0
_V4_PSDAPERTURE = 2.839876
_V4_PSDTYPE = 5
_V4_PSDFIXED = 0
_V4_COUNTERS_MASK = 1
_V4_DRIVES_MASK = 0
_V4_ENCODERS_MASK = 0
_2THETACOUNTS = 1
; 2THETA	Cnt2_D1
20	396
20.0592	350
20.1183	353
20.1775	368
20.2367	379
20.2958	369
20.355	354
20.4141	395
20.4733	379
20.5325	384
20.5916	370
20.6508	367
20.71	404
20.7691	394
20.8283	375
20.8875	376
20.9466	366
21.0058	393
21.065	383
21.1241	363
21.1833	378
21.2424	357
21.3016	376
21.3608	397
21.4199	399
21.4791	384
21.5383	343
21.5974	380
21.6566	389
21.7158	399
21.7749	394
21.8341	384
21.8933	398
21.9524	385
22.0116	367
22.0707	404
22.1299	410
22.1891	371
22.2482	405
22.3074	360
22.3666	387
22.4257	385
22.4849	376
22.5441	363
22.6032	432
22.6624	406
22.7215	425
22.7807	374
22.8399	385
22.899	392
22.9582	424
23.0174	351
23.0765	353
23.1357	377
23.1949	374
23.254	377
23.3132	395
23.3724	381
23.4315	344
23.4907	386
23.5498	379
23.609	404
23.6682	408
23.7273	402
23.7865	392
23.8457	379
23.9048	392
23.964	403
24.0232	421
24.0823	409
24.1415	414
24.2006	453
24.2598	470
24.319	514
24.3781	622
24.4373	696
24.4965	648
24.5556	502
24.6148	426
24.674	450
24.7331	460
24.7923	387
24.8515	387
24.9106	390
24.9698	404
25.0289	384
25.0881	442
25.1473	376
25.2064	403
25.2656	402
25.3248	388
25.3839	392
25.4431	392
25.5023	429
25.5614	394
25.6206	411
25.6798	359
25.7389	367
25.7981	419
25.8572	391
25.9164	414
25.9756	393
26.0347	392
26.0939	396
26.1531	372
26.2122	383
26.2714	435
26.3306	371
26.3897	381
26.4489	401
26.5081	396
26.5672	381
26.6264	390
26.6855	411
26.7447	390
26.8039	412
26.863	380
26.9222	392
26.9814	383
27.0405	392
27.0997	373
27.1589	369
27.218	369
27.2772	403
27.3363	394
27.3955	384
27.4547	422
27.5138	426
27.573	405
27.6322	400
27.6913	396
27.7505	374
27.8097	396
27.8688	407
27.928	361
27.9872	407
28.0463	396
28.1055	405
28.1646	408
28.2238	398
28.283	387
28.3421	401
28.4013	445
28.4605	395
28.5196	395
28.5788	397
28.638	396
28.6971	421
28.7563	393
28.8154	418
28.8746	408
28.9338	466
28.9929	402
29.0521	423
29.1113	400
29.1704	391
29.2296	338
29.2888	384
29.3479	394
29.4071	409
29.4663	431
29.5254	410
29.5846	375
29.6437	401
29.7029	394
29.7621	416
29.8212	399
29.8804	406
29.9396	426
29.9987	468
30.0579	417
30.1171	427
30.1762	410
30.2354	410
30.2946	448
30.3537	430
30.4129	384
30.472	373
30.5312	368
30.5904	410
30.6495	394
30.7087	403
30.7679	412
30.827	375
30.8862	415
30.9454	393
31.0045	401
31.0637	349
31.1228	409
31.182	410
31.2412	381
31.3003	378
31.3595	395
31.4187	407
31.4778	404
31.537	370
31.5962	408
31.6553	393
31.7145	416
31.7737	396
31.8328	412
31.892	393
31.9511	407
32.0103	425
32.0695	411
32.1286	420
32.1878	414
32.247	360
32.3061	404
32.3653	395
32.4245	396
32.4836	422
32.5428	380
32.602	440
32.6611	416
32.7203	408
32.7794	429
32.8386	401
32.8978	470
32.9569	423
33.0161	425
33.0753	450
33.1344	431
33.1936	504
33.2528	565
33.3119	596
33.3711	813
33.4302	1055
33.4894	1075
33.5486	915
33.6077	796
33.6669	671
33.7261	500
33.7852	462
33.8444	425
33.9036	443
33.9627	401
34.0219	416
34.0811	430
34.1402	402
34.1994	412
34.2585	412
34.3177	397
34.3769	400
34.436	419
34.4952	373
34.5544	424
34.6135	392
34.6727	370
34.7319	385
34.791	436
34.8502	403
34.9094	391
34.9685	425
35.0277	403
35.0868	449
35.146	494
35.2052	461
35.2643	463
35.3235	466
35.3827	444
35.4418	436
35.501	419
35.5602	397
35.6193	422
35.6785	430
35.7376	436
35.7968	435
35.856	420
35.9151	491
35.9743	468
36.0335	464
36.0926	455
36.1518	516
36.211	437
36.2701	401
36.3293	467
36.3885	423
36.4476	414
36.5068	398
36.5659	419
36.6251	384
36.6843	404
36.7434	412
36.8026	412
36.8618	401
36.9209	401
36.9801	385
37.0393	393
37.0984	384
37.1576	422
37.2168	401
37.2759	426
37.3351	350
37.3942	414
37.4534	411
37.5126	375
37.5717	409
37.6309	381
37.6901	409
37.7492	398
37.8084	392
37.8676	405
37.9267	425
37.9859	439
38.045	389
38.1042	413
38.1634	369
38.2225	394
38.2817	399
38.3409	406
38.4	392
38.4592	411
38.5184	402
38.5775	417
38.6367	420
38.6959	369
38.755	348
38.8142	409
38.8733	397
38.9325	371
38.9917	433
39.0508	415
39.11	390
39.1692	379
39.2283	408
39.2875	367
39.3467	376
39.4058	430
39.465	405
39.5241	361
39.5833	460
39.6425	400
39.7016	444
39.7608	387
39.82	415
39.8791	390
39.9383	430
39.9975	396
40.0566	412
40.1158	407
40.175	416
40.2341	405
40.2933	375
40.3524	376
40.4116	399
40.4708	411
40.5299	387
40.5891	395
40.6483	388
40.7074	398
40.7666	391
40.8258	381
40.8849	330
40.9441	415
41.0033	404
41.0624	381
41.1216	426
41.1807	466
41.2399	478
41.2991	504
41.3582	523
41.4174	510
41.4766	447
41.5357	426
41.5949	417
41.6541	460
41.7132	432
41.7724	398
41.8316	413
41.8907	439
41.9499	429
42.009	394
42.0682	429
42.1274	397
42.1865	412
42.2457	404
42.3049	437
42.364	414
42.4232	432
42.4824	447
42.5415	442
42.6007	467
42.6598	409
42.719	437
42.7782	445
42.8373	446
42.8965	447
42.9557	440
43.0148	460
43.074	437
43.1332	466
43.1923	436
43.2515	426
43.3107	468
43.3698	495
43.429	483
43.4881	491
43.5473	540
43.6065	532
43.6656	753
43.7248	973
43.784	1722
43.8431	4589
43.9023	14961
43.9615	12910
44.0206	13243
44.0798	6901
44.1389	3507
44.1981	1124
44.2573	763
44.3164	606
44.3756	569
44.4348	506
44.4939	543
44.5531	513
44.6123	472
44.6714	453
44.7306	448
44.7898	442
44.8489	429
44.9081	445
44.9672	426
45.0264	466
45.0856	450
45.1447	429
45.2039	398
45.2631	443
45.3222	415
45.3814	429
45.4406	445
45.4997	464
45.5589	437
45.6181	413
45.6772	430
45.7364	399
45.7955	398
45.8547	397
45.9139	364
45.973	422
46.0322	409
46.0914	415
46.1505	401
46.2097	394
46.2689	401
46.328	441
46.3872	407
46.4463	425
46.5055	365
46.5647	442
46.6238	410
46.683	408
46.7422	407
46.8013	434
46.8605	393
46.9197	405
46.9788	398
47.038	394
47.0972	418
47.1563	412
47.2155	416
47.2746	401
47.3338	409
47.393	408
47.4521	416
47.5113	403
47.5705	372
47.6296	384
47.6888	391
47.748	428
47.8071	385
47.8663	417
47.9255	438
47.9846	384
48.0438	396
48.1029	402
48.1621	402
48.2213	379
48.2804	409
48.3396	387
48.3988	412
48.4579	425
48.5171	374
48.5763	382
48.6354	377
48.6946	392
48.7537	379
48.8129	380
48.8721	400
48.9312	388
48.9904	428
49.0496	380
49.1087	390
49.1679	411
49.2271	370
49.2862	373
49.3454	411
49.4046	392
49.4637	417
49.5229	414
49.582	429
49.6412	430
49.7004	382
49.7595	379
49.8187	397
49.8779	429
49.937	403
49.9962	445
50.0554	491
50.1145	421
50.1737	457
50.2329	413
50.292	403
50.3512	415
50.4103	429
50.4695	350
50.5287	420
50.5878	441
50.647	455
50.7062	425
50.7653	473
50.8245	472
50.8837	529
50.9428	660
51.002	894
51.0611	1480
51.1203	2725
51.1795	3402
51.2386	3866
51.2978	2738
51.357	2080
51.4161	1214
51.4753	698
51.5345	501
51.5936	465
51.6528	460
51.712	393
51.7711	379
51.8303	399
51.8894	432
51.9486	390
52.0078	396
52.0669	417
52.1261	395
52.1853	400
52.2444	375
52.3036	394
52.3628	438
52.4219	399
52.4811	411
52.5403	420
52.5994	407
52.6586	394
52.7177	401
52.7769	385
52.8361	367
52.8952	412
52.9544	385
53.0136	376
53.0727	414
53.1319	395
53.1911	413
53.2502	417
53.3094	380
53.3685	394
53.4277	390
53.4869	399
53.546	377
53.6052	378
53.6644	368
53.7235	397
53.7827	399
53.8419	415
53.901	360
53.9602	382
54.0194	360
54.0785	421
54.1377	412
54.1968	385
54.256	411
54.3152	419
54.3743	455
54.4335	510
54.4927	467
54.5518	529
54.611	608
54.6702	586
54.7293	613
54.7885	532
54.8477	501
54.9068	453
54.966	420
55.0251	397
55.0843	398
55.1435	410
55.2026	398
55.2618	361
55.321	372
55.3801	390
55.4393	410
55.4985	331
55.5576	357
55.6168	404
55.6759	420
55.7351	367
55.7943	382
55.8534	389
55.9126	415
55.9718	381
56.0309	377
56.0901	387
56.1493	381
56.2084	397
56.2676	364
56.3268	376
56.3859	347
56.4451	381
56.5042	404
56.5634	399
56.6226	383
56.6817	377
56.7409	371
56.8001	367
56.8592	365
56.9184	371
56.9776	422
57.0367	385
57.0959	376
57.155	372
57.2142	350
57.2734	356
57.3325	356
57.3917	378
57.4509	375
57.51	361
57.5692	401
57.6284	364
57.6875	332
57.7467	373
57.8059	385
57.865	360
57.9242	359
57.9833	335
58.0425	352
58.1017	376
58.1608	372
58.22	360
58.2792	418
58.3383	433
58.3975	358
58.4567	368
58.5158	391
58.575	339
58.6342	346
58.6933	362
58.7525	340
58.8116	383
58.8708	372
58.93	389
58.9891	344
59.0483	379
59.1075	358
59.1666	352
59.2258	355
59.285	374
59.3441	354
59.4033	362
59.4624	377
59.5216	406
59.5808	380
59.6399	367
59.6991	384
59.7583	339
59.8174	375
59.8766	345
59.9358	383
59.9949	382
60.0541	343
60.1133	367
60.1724	374
60.2316	369
60.2907	340
60.3499	368
60.4091	358
60.4682	348
60.5274	385
60.5866	341
60.6457	397
60.7049	329
60.7641	366
60.8232	359
60.8824	390
60.9416	358
61.0007	372
61.0599	346
61.119	347
61.1782	386
61.2374	377
61.2965	316
61.3557	385
61.4149	361
61.474	338
61.5332	362
61.5924	359
61.6515	351
61.7107	350
61.7698	382
61.829	385
61.8882	409
61.9473	363
62.0065	391
62.0657	361
62.1248	361
62.184	357
62.2432	386
62.3023	370
62.3615	379
62.4207	382
62.4798	360
62.539	372
62.5981	385
62.6573	371
62.7165	368
62.7756	399
62.8348	391
62.894	413
62.9531	377
63.0123	401
63.0715	403
63.1306	417
63.1898	405
63.249	424
63.3081	395
63.3673	409
63.4264	369
63.4856	354
63.5448	341
63.6039	348
63.6631	341
63.7223	394
63.7814	331
63.8406	384
63.8998	383
63.9589	388
64.0181	374
64.0772	342
64.1364	407
64.1956	372
64.2547	382
64.3139	395
64.3731	327
64.4322	363
64.4914	372
64.5506	385
64.6097	363
64.6689	358
64.7281	367
64.7872	386
64.8464	381
64.9055	343
64.9647	369
65.0239	350
65.083	368
65.1422	371
65.2014	352
65.2605	352
65.3197	360
65.3789	366
65.438	347
65.4972	388
65.5563	357
65.6155	366
65.6747	366
65.7338	361
65.793	390
65.8522	313
65.9113	379
65.9705	333
66.0297	346
66.0888	360
66.148	354
66.2072	339
66.2663	362
66.3255	379
66.3846	365
66.4438	330
66.503	339
66.5621	350
66.6213	333
66.6805	324
66.7396	314
66.7988	344
66.858	340
66.9171	353
66.9763	336
67.0355	344
67.0946	341
67.1538	372
67.2129	342
67.2721	344
67.3313	375
67.3904	342
67.4496	392
67.5088	364
67.5679	361
67.6271	367
67.6863	337
67.7454	349
67.8046	352
67.8637	351
67.9229	341
67.9821	362
68.0412	338
68.1004	318
68.1596	359
68.2187	330
68.2779	318
68.3371	314
68.3962	338
68.4554	330
68.5146	355
68.5737	377
68.6329	329
68.692	355
68.7512	357
68.8104	313
68.8695	367
68.9287	336
68.9879	340
69.047	334
69.1062	340
69.1654	359
69.2245	323
69.2837	316
69.3429	351
69.402	349
69.4612	348
69.5203	351
69.5795	347
69.6387	332
69.6978	334
69.757	359
69.8162	386
69.8753	348
69.9345	310
69.9937	323
70.0528	326
70.112	382
70.1711	319
70.2303	361
70.2895	329
70.3486	312
70.4078	363
70.467	299
70.5261	318
70.5853	344
70.6445	372
70.7036	367
70.7628	335
70.822	327
70.8811	311
70.9403	320
70.9994	337
71.0586	303
71.1178	352
71.1769	327
71.2361	366
71.2953	369
71.3544	343
71.4136	315
71.4728	330
71.5319	339
71.5911	359
71.6503	334
71.7094	337
71.7686	345
71.8277	341
71.8869	353
71.9461	342
72.0052	347
72.0644	333
72.1236	315
72.1827	322
72.2419	346
72.3011	340
72.3602	348
72.4194	340
72.4785	364
72.5377	351
72.5969	323
72.656	345
72.7152	323
72.7744	343
72.8335	367
72.8927	356
72.9519	344
73.011	328
73.0702	344
73.1294	364
73.1885	360
73.2477	326
73.3068	336
73.366	356
73.4252	352
73.4843	345
73.5435	353
73.6027	364
73.6618	321
73.721	371
73.7802	303
73.8393	335
73.8985	325
73.9577	329
74.0168	344
74.076	330
74.1351	327
74.1943	322
74.2535	347
74.3126	339
74.3718	339
74.431	307
74.4901	324
74.5493	347
74.6085	331
74.6676	328
74.7268	357
74.7859	348
74.8451	395
74.9043	347
74.9634	369
75.0226	394
75.0818	464
75.1409	627
75.2001	791
75.2593	938
75.3184	949
75.3776	868
75.4368	694
75.4959	736
75.5551	613
75.6142	505
75.6734	395
75.7326	366
75.7917	338
75.8509	301
75.9101	359
75.9692	353
76.0284	317
76.0876	350
76.1467	360
76.2059	319
76.2651	323
76.3242	330
76.3834	318
76.4425	351
76.5017	329
76.5609	336
76.62	287
76.6792	341
76.7384	340
76.7975	326
76.8567	305
76.9159	357
76.975	323
77.0342	343
77.0933	353
77.1525	335
77.2117	329
77.2708	300
77.33	296
77.3892	335
77.4483	304
77.5075	303
77.5667	354
77.6258	331
77.685	311
77.7442	306
77.8033	324
77.8625	290
77.9216	309
77.9808	355
78.04	297
78.0991	295
78.1583	354
78.2175	330
78.2766	364
78.3358	288
78.395	345
78.4541	319
78.5133	337
78.5725	343
78.6316	326
78.6908	294
78.7499	330
78.8091	363
78.8683	326
78.9274	299
78.9866	331
79.0458	342
79.1049	347
79.1641	326
79.2233	339
79.2824	330
79.3416	298
79.4007	328
79.4599	302
79.5191	334
79.5782	309
79.6374	278
79.6966	321
79.7557	339
79.8149	318
79.8741	341
79.9332	361
79.9924	302
80.0516	328
80.1107	316
80.1699	315
80.229	318
80.2882	310
80.3474	348
80.4065	308
80.4657	325
80.5249	316
80.584	336
80.6432	294
80.7024	314
80.7615	343
80.8207	293
80.8799	334
80.939	346
80.9982	283
81.0573	297
81.1165	312
81.1757	303
81.2348	310
81.294	328
81.3532	317
81.4123	337
81.4715	325
81.5307	325
81.5898	298
81.649	301
81.7081	297
81.7673	315
81.8265	289
81.8856	296
81.9448	314
82.004	295
82.0631	325
82.1223	278
82.1815	292
82.2406	308
82.2998	280
82.359	275
82.4181	288
82.4773	293
82.5364	317
82.5956	313
82.6548	290
82.7139	288
82.7731	309
82.8323	312
82.8914	304
82.9506	295
83.0098	328
83.0689	298
83.1281	275
83.1873	350
83.2464	284
83.3056	345
83.3647	314
83.4239	306
83.4831	300
83.5422	296
83.6014	327
83.6606	354
83.7197	303
83.7789	300
83.8381	352
83.8972	295
83.9564	334
84.0155	283
84.0747	312
84.1339	313
84.193	273
84.2522	308
84.3114	282
84.3705	307
84.4297	312
84.4889	301
84.548	273
84.6072	304
84.6664	278
84.7255	286
84.7847	265
84.8438	284
84.903	351
84.9622	317
85.0213	307
85.0805	271
85.1397	309
85.1988	296
85.258	290
85.3172	325
85.3763	300
85.4355	265
85.4946	306
85.5538	309
85.613	303
85.6721	315
85.7313	278
85.7905	293
85.8496	351
85.9088	317
85.968	258
86.0271	301
86.0863	302
86.1455	339
86.2046	312
86.2638	276
86.3229	295
86.3821	294
86.4413	289
86.5004	297
86.5596	271
86.6188	281
86.6779	331
86.7371	294
86.7963	289
86.8554	335
86.9146	276
86.9738	286
87.0329	319
87.0921	299
87.1512	304
87.2104	303
87.2696	276
87.3287	257
87.3879	277
87.4471	282
87.5062	298
87.5654	282
87.6246	257
87.6837	339
87.7429	291
87.802	261
87.8612	288
87.9204	293
87.9795	292
88.0387	278
88.0979	320
88.157	287
88.2162	338
88.2754	294
88.3345	299
88.3937	269
88.4529	288
88.512	268
88.5712	308
88.6303	292
88.6895	266
88.7487	281
88.8078	288
88.867	251
88.9262	294
88.9853	288
89.0445	297
89.1037	274
89.1628	292
89.222	232
89.2812	306
89.3403	324
89.3995	276
89.4586	311
89.5178	270
89.577	264
89.6361	289
89.6953	290
89.7545	276
89.8136	284
89.8728	349
89.932	323
89.9911	297