File: XRD/690-07.uxd
;content of D:\data\result\mecham\???\20231225-89741\690-07.raw - (Diffrac Plus V4 file)
_FILEVERSION = 3
_SAMPLE
_+SAMPLE
_USER = Lab Manager
_GONIOMETER_CODE = 21
_STAGE_CODE = 7
; Goniometer : D8 theta/theta, stage : Chi drive
_SAMPLE_CHANGER_CODE = 0
_ATTACHMENTS_CODE = 0
_GONIOMETER_RADIUS = 280
_MONOCHROMATOR = 0
; Incident beam monochromator : None
_BETA_FILTER = N
_ANALYZER_CODE = 0
; Received beam analyzer : None
_DATEMEASURED = 25-Dec-2023 11:22:40
_RUNTIME = 11.18933
_WL_UNIT = A
_WL1 = 1.5406
_WL2 = 1.54439
_WL3 = 1.39222
_WLRATIO = 0.5
_ANODE = Cu
_V4_INF_USER = Lab Manager
_V4_INF_CREATOR = V5Converter
_V4_INF_CREATOR_VERSION = 4.4.16.0

; Data for range 1
_DRIVE = COUPLED
_STEPTIME = 57.6
_STEPSIZE = 0.019721
_STEPMODE = C
_START = 20
_THETA = 10
_2THETA = 20
_KHI = 0
_PHI = 0
_DETECTORSLIT = out
_AUX1 = 0
_TIMESTARTED = 0
_KV = 40
_MA = 40
_RANGE_WL = 1.5406
_3DPLANE = 0
_V4_PSD2THETA = 9999
_V4_PSDCHANNEL1 = 0
_V4_PSDAPERTURE = 2.839876
_V4_PSDTYPE = 5
_V4_PSDFIXED = 0
_V4_COUNTERS_MASK = 1
_V4_DRIVES_MASK = 0
_V4_ENCODERS_MASK = 0
_2THETACOUNTS = 1
; 2THETA	Cnt2_D1
20	509
20.0592	436
20.1183	505
20.1775	542
20.2367	541
20.2958	487
20.355	508
20.4141	517
20.4733	512
20.5325	478
20.5916	458
20.6508	477
20.71	501
20.7691	522
20.8283	502
20.8875	510
20.9466	464
21.0058	495
21.065	468
21.1241	498
21.1833	467
21.2424	472
21.3016	479
21.3608	488
21.4199	440
21.4791	470
21.5383	469
21.5974	480
21.6566	492
21.7158	504
21.7749	469
21.8341	469
21.8933	496
21.9524	472
22.0116	456
22.0707	510
22.1299	494
22.1891	486
22.2482	496
22.3074	498
22.3666	505
22.4257	475
22.4849	478
22.5441	469
22.6032	499
22.6624	494
22.7215	508
22.7807	478
22.8399	461
22.899	480
22.9582	511
23.0174	540
23.0765	480
23.1357	478
23.1949	492
23.254	456
23.3132	461
23.3724	486
23.4315	485
23.4907	461
23.5498	456
23.609	485
23.6682	506
23.7273	489
23.7865	480
23.8457	501
23.9048	476
23.964	514
24.0232	484
24.0823	497
24.1415	546
24.2006	557
24.2598	594
24.319	582
24.3781	622
24.4373	668
24.4965	771
24.5556	730
24.6148	627
24.674	527
24.7331	513
24.7923	497
24.8515	487
24.9106	508
24.9698	502
25.0289	474
25.0881	470
25.1473	508
25.2064	552
25.2656	508
25.3248	469
25.3839	485
25.4431	534
25.5023	428
25.5614	528
25.6206	460
25.6798	519
25.7389	494
25.7981	463
25.8572	459
25.9164	493
25.9756	452
26.0347	472
26.0939	449
26.1531	473
26.2122	504
26.2714	467
26.3306	470
26.3897	465
26.4489	512
26.5081	497
26.5672	488
26.6264	510
26.6855	497
26.7447	452
26.8039	497
26.863	492
26.9222	501
26.9814	450
27.0405	431
27.0997	457
27.1589	455
27.218	488
27.2772	501
27.3363	467
27.3955	462
27.4547	467
27.5138	449
27.573	483
27.6322	476
27.6913	479
27.7505	521
27.8097	519
27.8688	479
27.928	480
27.9872	452
28.0463	493
28.1055	430
28.1646	538
28.2238	444
28.283	490
28.3421	447
28.4013	490
28.4605	451
28.5196	517
28.5788	504
28.638	488
28.6971	445
28.7563	492
28.8154	463
28.8746	487
28.9338	435
28.9929	494
29.0521	484
29.1113	454
29.1704	460
29.2296	466
29.2888	431
29.3479	502
29.4071	464
29.4663	467
29.5254	449
29.5846	451
29.6437	489
29.7029	456
29.7621	460
29.8212	493
29.8804	501
29.9396	542
29.9987	488
30.0579	470
30.1171	543
30.1762	531
30.2354	561
30.2946	552
30.3537	542
30.4129	510
30.472	489
30.5312	486
30.5904	483
30.6495	465
30.7087	480
30.7679	477
30.827	472
30.8862	505
30.9454	446
31.0045	446
31.0637	453
31.1228	480
31.182	499
31.2412	484
31.3003	449
31.3595	474
31.4187	482
31.4778	484
31.537	470
31.5962	432
31.6553	476
31.7145	502
31.7737	446
31.8328	488
31.892	461
31.9511	452
32.0103	429
32.0695	458
32.1286	457
32.1878	483
32.247	458
32.3061	477
32.3653	499
32.4245	514
32.4836	471
32.5428	531
32.602	475
32.6611	430
32.7203	445
32.7794	479
32.8386	468
32.8978	499
32.9569	415
33.0161	457
33.0753	490
33.1344	478
33.1936	509
33.2528	538
33.3119	530
33.3711	549
33.4302	584
33.4894	684
33.5486	765
33.6077	706
33.6669	716
33.7261	588
33.7852	505
33.8444	520
33.9036	459
33.9627	484
34.0219	507
34.0811	463
34.1402	505
34.1994	447
34.2585	475
34.3177	476
34.3769	481
34.436	429
34.4952	496
34.5544	441
34.6135	467
34.6727	424
34.7319	483
34.791	481
34.8502	486
34.9094	479
34.9685	427
35.0277	452
35.0868	447
35.146	486
35.2052	491
35.2643	515
35.3235	486
35.3827	514
35.4418	541
35.501	515
35.5602	515
35.6193	566
35.6785	601
35.7376	579
35.7968	574
35.856	522
35.9151	543
35.9743	556
36.0335	584
36.0926	618
36.1518	638
36.211	638
36.2701	616
36.3293	531
36.3885	475
36.4476	504
36.5068	456
36.5659	469
36.6251	439
36.6843	496
36.7434	481
36.8026	513
36.8618	486
36.9209	451
36.9801	458
37.0393	575
37.0984	545
37.1576	773
37.2168	963
37.2759	1062
37.3351	838
37.3942	679
37.4534	568
37.5126	460
37.5717	507
37.6309	448
37.6901	481
37.7492	431
37.8084	487
37.8676	465
37.9267	478
37.9859	448
38.045	422
38.1042	467
38.1634	481
38.2225	445
38.2817	428
38.3409	460
38.4	453
38.4592	468
38.5184	445
38.5775	461
38.6367	482
38.6959	472
38.755	458
38.8142	461
38.8733	435
38.9325	452
38.9917	431
39.0508	484
39.11	474
39.1692	473
39.2283	449
39.2875	458
39.3467	476
39.4058	490
39.465	467
39.5241	471
39.5833	495
39.6425	509
39.7016	483
39.7608	492
39.82	439
39.8791	470
39.9383	461
39.9975	424
40.0566	482
40.1158	461
40.175	492
40.2341	477
40.2933	463
40.3524	477
40.4116	472
40.4708	443
40.5299	454
40.5891	443
40.6483	449
40.7074	438
40.7666	484
40.8258	451
40.8849	458
40.9441	445
41.0033	435
41.0624	462
41.1216	468
41.1807	465
41.2399	464
41.2991	453
41.3582	488
41.4174	493
41.4766	496
41.5357	506
41.5949	491
41.6541	509
41.7132	466
41.7724	444
41.8316	445
41.8907	472
41.9499	428
42.009	448
42.0682	418
42.1274	433
42.1865	473
42.2457	486
42.3049	482
42.364	481
42.4232	477
42.4824	524
42.5415	488
42.6007	534
42.6598	516
42.719	455
42.7782	516
42.8373	509
42.8965	555
42.9557	502
43.0148	525
43.074	541
43.1332	562
43.1923	599
43.2515	759
43.3107	860
43.3698	750
43.429	697
43.4881	619
43.5473	650
43.6065	680
43.6656	855
43.7248	1257
43.784	2390
43.8431	8852
43.9023	25225
43.9615	14088
44.0206	15067
44.0798	5768
44.1389	2168
44.1981	1130
44.2573	831
44.3164	652
44.3756	584
44.4348	581
44.4939	544
44.5531	593
44.6123	543
44.6714	524
44.7306	570
44.7898	531
44.8489	529
44.9081	521
44.9672	536
45.0264	525
45.0856	507
45.1447	497
45.2039	477
45.2631	449
45.3222	459
45.3814	503
45.4406	466
45.4997	520
45.5589	459
45.6181	485
45.6772	495
45.7364	476
45.7955	465
45.8547	478
45.9139	426
45.973	449
46.0322	468
46.0914	472
46.1505	482
46.2097	439
46.2689	458
46.328	462
46.3872	462
46.4463	450
46.5055	437
46.5647	456
46.6238	473
46.683	453
46.7422	452
46.8013	470
46.8605	458
46.9197	444
46.9788	475
47.038	479
47.0972	444
47.1563	488
47.2155	478
47.2746	517
47.3338	446
47.393	463
47.4521	461
47.5113	426
47.5705	463
47.6296	404
47.6888	471
47.748	448
47.8071	407
47.8663	484
47.9255	466
47.9846	418
48.0438	449
48.1029	429
48.1621	445
48.2213	407
48.2804	416
48.3396	502
48.3988	473
48.4579	473
48.5171	464
48.5763	440
48.6354	419
48.6946	417
48.7537	371
48.8129	447
48.8721	454
48.9312	457
48.9904	435
49.0496	431
49.1087	458
49.1679	439
49.2271	433
49.2862	463
49.3454	459
49.4046	443
49.4637	429
49.5229	424
49.582	494
49.6412	434
49.7004	457
49.7595	432
49.8187	434
49.8779	497
49.937	527
49.9962	500
50.0554	513
50.1145	571
50.1737	549
50.2329	570
50.292	521
50.3512	503
50.4103	490
50.4695	504
50.5287	475
50.5878	515
50.647	535
50.7062	530
50.7653	524
50.8245	638
50.8837	766
50.9428	906
51.002	1400
51.0611	4080
51.1203	12872
51.1795	8531
51.2386	9084
51.2978	6164
51.357	3063
51.4161	1631
51.4753	914
51.5345	703
51.5936	605
51.6528	553
51.712	502
51.7711	491
51.8303	494
51.8894	459
51.9486	453
52.0078	475
52.0669	491
52.1261	486
52.1853	460
52.2444	470
52.3036	436
52.3628	454
52.4219	418
52.4811	457
52.5403	436
52.5994	441
52.6586	462
52.7177	454
52.7769	468
52.8361	421
52.8952	490
52.9544	462
53.0136	487
53.0727	417
53.1319	451
53.1911	439
53.2502	477
53.3094	416
53.3685	437
53.4277	451
53.4869	422
53.546	429
53.6052	453
53.6644	389
53.7235	422
53.7827	380
53.8419	452
53.901	446
53.9602	447
54.0194	425
54.0785	407
54.1377	429
54.1968	440
54.256	442
54.3152	438
54.3743	438
54.4335	438
54.4927	441
54.5518	427
54.611	478
54.6702	482
54.7293	445
54.7885	519
54.8477	484
54.9068	466
54.966	473
55.0251	453
55.0843	451
55.1435	425
55.2026	438
55.2618	452
55.321	405
55.3801	412
55.4393	404
55.4985	459
55.5576	414
55.6168	399
55.6759	426
55.7351	451
55.7943	419
55.8534	397
55.9126	430
55.9718	442
56.0309	400
56.0901	418
56.1493	417
56.2084	412
56.2676	392
56.3268	382
56.3859	374
56.4451	411
56.5042	435
56.5634	417
56.6226	438
56.6817	454
56.7409	409
56.8001	468
56.8592	421
56.9184	460
56.9776	408
57.0367	389
57.0959	391
57.155	447
57.2142	421
57.2734	445
57.3325	444
57.3917	427
57.4509	421
57.51	450
57.5692	423
57.6284	404
57.6875	425
57.7467	413
57.8059	415
57.865	422
57.9242	409
57.9833	403
58.0425	415
58.1017	432
58.1608	426
58.22	409
58.2792	411
58.3383	406
58.3975	395
58.4567	411
58.5158	418
58.575	374
58.6342	406
58.6933	413
58.7525	397
58.8116	411
58.8708	438
58.93	395
58.9891	425
59.0483	417
59.1075	371
59.1666	424
59.2258	427
59.285	369
59.3441	373
59.4033	391
59.4624	406
59.5216	434
59.5808	427
59.6399	392
59.6991	417
59.7583	383
59.8174	399
59.8766	391
59.9358	425
59.9949	431
60.0541	393
60.1133	381
60.1724	395
60.2316	361
60.2907	365
60.3499	401
60.4091	363
60.4682	371
60.5274	420
60.5866	403
60.6457	404
60.7049	387
60.7641	384
60.8232	382
60.8824	381
60.9416	384
61.0007	383
61.0599	385
61.119	365
61.1782	380
61.2374	391
61.2965	402
61.3557	375
61.4149	398
61.474	399
61.5332	357
61.5924	355
61.6515	367
61.7107	377
61.7698	393
61.829	355
61.8882	387
61.9473	401
62.0065	422
62.0657	414
62.1248	384
62.184	378
62.2432	402
62.3023	341
62.3615	398
62.4207	367
62.4798	400
62.539	366
62.5981	388
62.6573	434
62.7165	433
62.7756	527
62.8348	557
62.894	557
62.9531	480
63.0123	478
63.0715	465
63.1306	431
63.1898	417
63.249	396
63.3081	375
63.3673	402
63.4264	400
63.4856	411
63.5448	373
63.6039	404
63.6631	401
63.7223	389
63.7814	365
63.8406	375
63.8998	417
63.9589	393
64.0181	393
64.0772	394
64.1364	377
64.1956	382
64.2547	364
64.3139	351
64.3731	381
64.4322	381
64.4914	387
64.5506	401
64.6097	361
64.6689	395
64.7281	370
64.7872	424
64.8464	404
64.9055	367
64.9647	409
65.0239	364
65.083	351
65.1422	396
65.2014	386
65.2605	398
65.3197	358
65.3789	385
65.438	380
65.4972	387
65.5563	377
65.6155	384
65.6747	355
65.7338	397
65.793	388
65.8522	402
65.9113	382
65.9705	395
66.0297	378
66.0888	406
66.148	402
66.2072	356
66.2663	388
66.3255	388
66.3846	378
66.4438	377
66.503	392
66.5621	402
66.6213	357
66.6805	341
66.7396	385
66.7988	393
66.858	360
66.9171	366
66.9763	394
67.0355	357
67.0946	378
67.1538	395
67.2129	360
67.2721	352
67.3313	379
67.3904	385
67.4496	366
67.5088	336
67.5679	367
67.6271	367
67.6863	368
67.7454	346
67.8046	392
67.8637	365
67.9229	385
67.9821	378
68.0412	365
68.1004	375
68.1596	336
68.2187	389
68.2779	373
68.3371	380
68.3962	351
68.4554	352
68.5146	379
68.5737	390
68.6329	361
68.692	411
68.7512	397
68.8104	421
68.8695	392
68.9287	359
68.9879	356
69.047	374
69.1062	380
69.1654	394
69.2245	392
69.2837	356
69.3429	354
69.402	413
69.4612	351
69.5203	358
69.5795	326
69.6387	389
69.6978	342
69.757	347
69.8162	408
69.8753	377
69.9345	345
69.9937	436
70.0528	390
70.112	397
70.1711	358
70.2303	363
70.2895	381
70.3486	346
70.4078	378
70.467	347
70.5261	368
70.5853	341
70.6445	351
70.7036	363
70.7628	390
70.822	342
70.8811	337
70.9403	397
70.9994	373
71.0586	375
71.1178	369
71.1769	356
71.2361	346
71.2953	317
71.3544	343
71.4136	356
71.4728	376
71.5319	383
71.5911	344
71.6503	357
71.7094	376
71.7686	363
71.8277	388
71.8869	384
71.9461	348
72.0052	347
72.0644	347
72.1236	329
72.1827	371
72.2419	379
72.3011	375
72.3602	380
72.4194	348
72.4785	366
72.5377	361
72.5969	359
72.656	374
72.7152	345
72.7744	386
72.8335	335
72.8927	360
72.9519	364
73.011	346
73.0702	394
73.1294	385
73.1885	385
73.2477	349
73.3068	363
73.366	354
73.4252	376
73.4843	396
73.5435	337
73.6027	345
73.6618	351
73.721	356
73.7802	322
73.8393	352
73.8985	351
73.9577	404
74.0168	359
74.076	339
74.1351	350
74.1943	356
74.2535	343
74.3126	372
74.3718	384
74.431	403
74.4901	349
74.5493	358
74.6085	382
74.6676	339
74.7268	359
74.7859	361
74.8451	373
74.9043	364
74.9634	364
75.0226	407
75.0818	428
75.1409	580
75.2001	654
75.2593	530
75.3184	537
75.3776	587
75.4368	507
75.4959	436
75.5551	416
75.6142	432
75.6734	379
75.7326	347
75.7917	341
75.8509	333
75.9101	345
75.9692	337
76.0284	345
76.0876	311
76.1467	341
76.2059	366
76.2651	347
76.3242	336
76.3834	383
76.4425	352
76.5017	376
76.5609	346
76.62	317
76.6792	313
76.7384	376
76.7975	362
76.8567	349
76.9159	336
76.975	354
77.0342	355
77.0933	344
77.1525	360
77.2117	351
77.2708	354
77.33	367
77.3892	321
77.4483	354
77.5075	382
77.5667	341
77.6258	300
77.685	313
77.7442	365
77.8033	334
77.8625	345
77.9216	372
77.9808	329
78.04	401
78.0991	360
78.1583	346
78.2175	351
78.2766	345
78.3358	360
78.395	347
78.4541	357
78.5133	335
78.5725	328
78.6316	334
78.6908	365
78.7499	355
78.8091	323
78.8683	366
78.9274	345
78.9866	351
79.0458	337
79.1049	354
79.1641	353
79.2233	348
79.2824	336
79.3416	352
79.4007	317
79.4599	351
79.5191	310
79.5782	328
79.6374	341
79.6966	375
79.7557	335
79.8149	308
79.8741	359
79.9332	336
79.9924	316
80.0516	321
80.1107	305
80.1699	326
80.229	345
80.2882	319
80.3474	341
80.4065	329
80.4657	321
80.5249	336
80.584	348
80.6432	351
80.7024	330
80.7615	315
80.8207	342
80.8799	372
80.939	349
80.9982	289
81.0573	330
81.1165	326
81.1757	334
81.2348	309
81.294	324
81.3532	340
81.4123	323
81.4715	326
81.5307	323
81.5898	320
81.649	342
81.7081	325
81.7673	335
81.8265	297
81.8856	305
81.9448	351
82.004	321
82.0631	338
82.1223	309
82.1815	320
82.2406	336
82.2998	309
82.359	317
82.4181	298
82.4773	304
82.5364	313
82.5956	321
82.6548	343
82.7139	296
82.7731	348
82.8323	361
82.8914	322
82.9506	325
83.0098	323
83.0689	354
83.1281	341
83.1873	352
83.2464	336
83.3056	281
83.3647	308
83.4239	285
83.4831	373
83.5422	292
83.6014	339
83.6606	319
83.7197	283
83.7789	323
83.8381	342
83.8972	297
83.9564	332
84.0155	320
84.0747	338
84.1339	338
84.193	328
84.2522	267
84.3114	337
84.3705	345
84.4297	302
84.4889	331
84.548	345
84.6072	354
84.6664	293
84.7255	302
84.7847	336
84.8438	342
84.903	336
84.9622	277
85.0213	344
85.0805	322
85.1397	303
85.1988	305
85.258	323
85.3172	288
85.3763	317
85.4355	308
85.4946	345
85.5538	338
85.613	308
85.6721	294
85.7313	301
85.7905	327
85.8496	327
85.9088	305
85.968	290
86.0271	311
86.0863	334
86.1455	285
86.2046	323
86.2638	278
86.3229	330
86.3821	318
86.4413	316
86.5004	305
86.5596	299
86.6188	323
86.6779	294
86.7371	293
86.7963	330
86.8554	302
86.9146	285
86.9738	326
87.0329	272
87.0921	297
87.1512	268
87.2104	300
87.2696	288
87.3287	314
87.3879	335
87.4471	311
87.5062	306
87.5654	334
87.6246	298
87.6837	329
87.7429	288
87.802	302
87.8612	283
87.9204	311
87.9795	326
88.0387	302
88.0979	289
88.157	284
88.2162	342
88.2754	346
88.3345	295
88.3937	309
88.4529	310
88.512	300
88.5712	329
88.6303	308
88.6895	324
88.7487	322
88.8078	303
88.867	300
88.9262	310
88.9853	282
89.0445	303
89.1037	312
89.1628	308
89.222	333
89.2812	294
89.3403	331
89.3995	314
89.4586	295
89.5178	312
89.577	328
89.6361	323
89.6953	306
89.7545	322
89.8136	311
89.8728	320
89.932	311
89.9911	292