File: XRD/800-X.txt
?
20.0     12
20.05916 10
20.11832 5
20.17749 7
20.23665 9
20.29582 13
20.35498 9
20.41414 9
20.47331 7
20.53247 5
20.59164 13
20.65080 7
20.70996 13
20.76913 15
20.82829 6
20.88746 12
20.94662 9
21.00578 10
21.06495 8
21.12411 11
21.18328 6
21.24244 12
21.30161 18
21.36077 9
21.41993 8
21.47910 10
21.53826 12
21.59743 7
21.65659 13
21.71575 12
21.77492 11
21.83408 13
21.89325 11
21.95241 12
22.01158 9
22.07074 11
22.12990 8
22.18907 9
22.24823 4
22.3074  13
22.36656 8
22.42572 7
22.48489 17
22.54405 14
22.60322 15
22.66238 11
22.72154 7
22.78071 7
22.83987 13
22.89904 4
22.95820 11
23.01736 13
23.07653 9
23.13569 12
23.19486 8
23.25402 11
23.31318 7
23.37235 12
23.43151 15
23.49068 5
23.54984 7
23.60900 10
23.66817 11
23.72733 12
23.78650 10
23.84566 10
23.90483 13
23.96399 16
24.02315 24
24.08232 49
24.14148 253
24.20065 466
24.25981 224
24.31897 16
24.37814 20
24.43730 17
24.49647 10
24.55563 12
24.61479 12
24.67396 10
24.73312 19
24.79229 12
24.85145 6
24.91062 7
24.96978 13
25.02894 11
25.08811 14
25.14727 11
25.20644 11
25.26560 12
25.32476 10
25.38393 9
25.44309 7
25.50226 10
25.56142 13
25.62058 11
25.67975 16
25.73891 13
25.79808 1
25.85724 14
25.91640 7
25.97557 7
26.03473 3
26.09390 9
26.15306 11
26.21223 6
26.27139 7
26.33055 13
26.38972 7
26.44888 3
26.50805 8
26.56721 5
26.62637 10
26.68554 11
26.74470 8
26.80387 8
26.86303 11
26.92219 6
26.98136 13
27.04052 7
27.09969 0
27.15885 11
27.21801 9
27.27718 5
27.33634 14
27.39551 19
27.45467 9
27.51384 10
27.57300 3
27.63216 5
27.69133 13
27.75049 8
27.80966 4
27.86882 11
27.92798 4
27.98715 7
28.04631 5
28.10548 6
28.16464 5
28.22380 4
28.28297 5
28.34213 9
28.4013  9
28.46046 7
28.51963 9
28.57879 11
28.63795 6
28.69712 7
28.75628 5
28.81545 10
28.87461 13
28.93377 5
28.99294 11
29.05210 9
29.11127 3
29.17043 13
29.22959 11
29.28876 4
29.34792 7
29.40709 6
29.46625 16
29.52541 8
29.58458 7
29.64374 12
29.70291 4
29.76207 9
29.82123 6
29.88040 10
29.93956 9
29.99873 3
30.05789 19
30.11706 24
30.17622 17
30.23538 18
30.29455 9
30.35371 16
30.41288 12
30.47204 8
30.53120 8
30.59037 13
30.64953 8
30.7087  3
30.76786 14
30.82702 11
30.88619 16
30.94535 6
31.00452 6
31.06368 17
31.12285 21
31.18201 14
31.24117 10
31.30034 5
31.35950 12
31.41867 15
31.47783 10
31.53699 16
31.59616 17
31.65532 11
31.71449 10
31.77365 12
31.83281 9
31.89198 15
31.95114 7
32.01031 8
32.06947 19
32.12863 18
32.18780 20
32.24696 14
32.30613 13
32.36529 23
32.42446 17
32.48362 22
32.54278 16
32.60195 7
32.66111 20
32.72028 20
32.77944 20
32.83860 23
32.89777 36
32.95693 32
33.01610 68
33.07526 198
33.13443 1054
33.19359 2599
33.25275 1784
33.31192 267
33.37108 28
33.43024 48
33.48941 49
33.54857 9
33.60774 25
33.66690 25
33.72607 9
33.78523 17
33.84439 22
33.90356 4
33.96272 18
34.02188 24
34.08105 9
34.14021 16
34.19938 15
34.25854 8
34.31771 14
34.37687 13
34.43603 9
34.49520 18
34.55436 19
34.61353 11
34.67269 12
34.73186 14
34.79102 14
34.85018 5
34.90935 18
34.96851 17
35.02767 8
35.08684 9
35.14600 13
35.20517 16
35.26433 14
35.32350 18
35.38266 74
35.44183 229
35.50099 281
35.56015 148
35.61932 120
35.67848 112
35.73764 49
35.79681 10
35.85597 10
35.91514 14
35.97430 9
36.03347 9
36.09263 12
36.15179 8
36.21096 10
36.27012 6
36.32928 12
36.38845 19
36.44761 8
36.50678 6
36.56594 14
36.62511 7
36.68427 13
36.74343 8
36.80260 7
36.86176 18
36.92092 7
36.98009 7
37.03926 13
37.09842 25
37.15758 15
37.21675 17
37.27591 14
37.33507 13
37.39424 14
37.45340 8
37.51257 4
37.57173 12
37.63090 15
37.69006 10
37.74922 5
37.80839 10
37.86755 10
37.92672 8
37.98588 9
38.04504 7
38.10421 5
38.16337 13
38.22254 15
38.28170 5
38.34087 8
38.40003 15
38.45919 4
38.51836 11
38.57752 10
38.63668 8
38.69585 10
38.75501 13
38.81418 12
38.87334 10
38.93251 9
38.99167 5
39.05083 6
39.11000 11
39.16916 13
39.22832 12
39.28749 39
39.34665 34
39.40582 11
39.46498 6
39.52415 12
39.58331 10
39.64247 5
39.70164 7
39.76080 10
39.81997 9
39.87913 5
39.93830 11
39.99746 13
40.05662 12
40.11579 8
40.17495 6
40.23411 10
40.29328 13
40.35244 11
40.41161 10
40.47077 11
40.52994 13
40.58910 8
40.64827 14
40.70743 19
40.76659 30
40.82576 96
40.88492 146
40.94408 72
41.00325 21
41.06241 27
41.12158 12
41.18074 4
41.23991 11
41.29907 10
41.35823 10
41.4174  13
41.47656 9
41.53572 11
41.59489 18
41.65405 9
41.71322 6
41.77238 10
41.83155 8
41.89071 14
41.94987 11
42.00904 9
42.06820 4
42.12737 6
42.18653 14
42.24570 11
42.30486 9
42.36402 14
42.42319 18
42.48235 12
42.54151 10
42.60068 19
42.65984 9
42.71901 2
42.77817 11
42.83734 13
42.89650 9
42.95566 9
43.01483 31
43.07399 42
43.13316 35
43.19232 23
43.25148 19
43.31065 19
43.36981 14
43.42898 10
43.48814 18
43.54731 16
43.60647 14
43.66563 13
43.7248  12
43.78396 11
43.84312 14
43.90229 11
43.96145 9
44.02062 11
44.07978 15
44.13895 13
44.19811 8
44.25727 13
44.31644 11
44.37560 10
44.43477 13
44.49393 11
44.55310 8
44.61226 6
44.67142 8
44.73059 7
44.78975 10
44.84891 10
44.90808 12
44.96724 9
45.02641 6
45.08557 9
45.14474 11
45.20390 12
45.26306 10
45.32223 3
45.38139 9
45.44055 13
45.49972 10
45.55888 10
45.61805 6
45.67721 9
45.73638 8
45.79554 9
45.85471 9
45.91387 6
45.97303 8
46.0322  7
46.09136 8
46.15052 10
46.20969 8
46.26885 6
46.32802 11
46.38718 15
46.44635 9
46.50551 10
46.56467 11
46.62384 5
46.68300 4
46.74217 7
46.80133 6
46.8605  11
46.91966 14
46.97882 6
47.03799 5
47.09715 11
47.15631 13
47.21548 5
47.27464 6
47.33381 12
47.39297 14
47.45214 8
47.51130 3
47.57046 6
47.62963 12
47.68879 14
47.74795 13
47.80712 6
47.86628 8
47.92545 10
47.98461 8
48.04378 9
48.10294 12
48.16210 16
48.22127 10
48.28043 7
48.3396  7
48.39876 8
48.45792 7
48.51709 9
48.57625 7
48.63542 11
48.69458 11
48.75375 7
48.81291 4
48.87207 10
48.93124 12
48.99040 12
49.04956 9
49.10873 11
49.1679  15
49.22706 25
49.28622 40
49.34539 110
49.40455 264
49.46371 374
49.52288 265
49.58204 70
49.64121 16
49.70037 21
49.75954 14
49.81870 6
49.87786 8
49.93703 15
49.99619 14
50.05535 9
50.11452 10
50.17368 15
50.23285 11
50.29201 6
50.35118 9
50.41034 12
50.46950 10
50.52867 6
50.58783 10
50.64699 10
50.70616 7
50.76532 7
50.82449 10
50.88365 10
50.94282 6
51.00198 1
51.06115 6
51.12031 12
51.17947 11
51.23864 6
51.29780 7
51.35696 13
51.41613 11
51.47529 2
51.53446 5
51.59362 10
51.65279 9
51.71195 9
51.77111 12
51.83028 6
51.88944 7
51.94861 10
52.00777 10
52.06694 7
52.12610 9
52.18526 5
52.24443 10
52.30359 15
52.36275 14
52.42192 5
52.48108 6
52.54025 9
52.59941 9
52.65858 6
52.71774 12
52.77690 8
52.83607 11
52.89523 7
52.95439 9
53.01356 10
53.07272 9
53.13189 6
53.19105 7
53.25022 11
53.30938 11
53.36854 16
53.42771 20
53.48687 18
53.54604 23
53.60520 23
53.66436 13
53.72353 13
53.78269 17
53.84186 22
53.90102 53
53.96019 173
54.01935 331
54.07851 369
54.13768 233
54.19684 81
54.25601 24
54.31517 16
54.37434 11
54.43350 10
54.49266 15
54.55183 16
54.61099 7
54.67015 4
54.72932 4
54.78848 6
54.84765 13
54.90681 14
54.96598 7
55.02514 9
55.08430 4
55.14347 9
55.20263 11
55.26179 8
55.32096 5
55.38012 5
55.43929 8
55.49845 13
55.55762 14
55.61678 12
55.67594 5
55.73511 8
55.79427 7
55.85343 9
55.91260 10
55.97176 19
56.03093 8
56.09009 7
56.14926 4
56.20842 7
56.26759 12
56.32675 14
56.38591 12
56.44508 11
56.50424 4
56.56341 3
56.62257 6
56.68174 13
56.74090 18
56.80006 19
56.85923 32
56.91839 56
56.97755 73
57.03672 63
57.09588 31
57.15505 23
57.21421 25
57.27338 17
57.33254 16
57.39170 18
57.45087 53
57.51003 94
57.56919 125
57.62836 91
57.68752 42
57.74669 18
57.80585 18
57.86502 13
57.92418 11
57.98334 7
58.04251 9
58.10167 14
58.16083 13
58.22000 9
58.27916 6
58.33833 9
58.39749 14
58.45666 6
58.51582 8
58.57498 10
58.63415 13
58.69331 7
58.75248 5
58.81164 7
58.87081 9
58.92997 7
58.98914 16
59.04830 12
59.10746 5
59.16663 4
59.22579 10
59.28495 11
59.34412 6
59.40328 6
59.46245 7
59.52161 11
59.58078 13
59.63994 10
59.69910 4
59.75827 3
59.81743 5
59.87659 15
59.93576 14
59.99492 11
60.05409 9
60.11325 10
60.17242 3
60.23158 9
60.29074 13
60.34991 12
60.40907 10
60.46823 10
60.52740 10
60.58656 7
60.64573 10
60.70489 11
60.76406 14
60.82322 15
60.88238 6
60.94155 9
61.00071 8
61.05987 7
61.11904 12
61.17820 8
61.23737 5
61.29653 9
61.35570 11
61.41486 8
61.47403 6
61.53319 14
61.59235 16
61.65152 12
61.71068 3
61.76985 4
61.82901 10
61.88818 16
61.94734 11
62.00650 10
62.06567 11
62.12483 16
62.18399 22
62.24316 33
62.30232 62
62.36149 114
62.42065 148
62.47982 140
62.53898 99
62.59814 66
62.65731 50
62.71647 27
62.77563 14
62.83480 15
62.89396 20
62.95313 25
63.01229 15
63.07146 3
63.13062 14
63.18978 16
63.24895 6
63.30811 10
63.36727 8
63.42644 9
63.48560 10
63.54477 14
63.60393 14
63.66310 13
63.72226 14
63.78142 11
63.84059 16
63.89975 13
63.95892 27
64.01808 27
64.07724 25
64.13641 15
64.19558 10
64.25474 7
64.31390 15
64.37307 15
64.43223 11
64.49140 9
64.55056 4
64.60972 5
64.66889 5
64.72805 13
64.78721 19
64.84638 16
64.90554 7
64.96471 9
65.02387 11
65.08303 8
65.14220 14
65.20137 11
65.26052 3
65.31969 12
65.37886 9
65.43802 18
65.49718 3
65.55635 13
65.61551 12
65.67468 18
65.73384 14
65.79300 0
65.85217 8
65.91133 8
65.97049 27
66.02966 26
66.08882 14
66.14799 7
66.20716 5
66.26631 15
66.32548 15
66.38465 13
66.44381 5
66.50297 2
66.56214 11
66.62130 19
66.68047 19
66.73963 8
66.79879 6
66.85796 7
66.91713 8
66.97628 18
67.03545 11
67.09462 11
67.15378 7
67.21294 8
67.27211 10
67.33127 13
67.39044 8
67.4496  10
67.50876 8
67.56793 4
67.62709 15
67.68625 13
67.74542 13
67.80458 4
67.86375 13
67.92291 14
67.98207 14
68.04124 19
68.10041 12
68.15956 18
68.21873 13
68.27790 12
68.33706 14
68.39622 13
68.45539 18
68.51455 9
68.57372 9
68.63288 17
68.69204 7
68.75121 15
68.81037 14
68.86954 12
68.92870 18
68.98786 12
69.04703 8
69.10620 15
69.16535 21
69.22452 19
69.28369 14
69.34285 13
69.40201 12
69.46118 18
69.52034 30
69.57951 41
69.63867 46
69.69783 29
69.75700 19
69.81617 14
69.87532 14
69.93449 14
69.99366 16
70.05282 8
70.11198 12
70.17115 10
70.23031 11
70.28948 14
70.34864 15
70.40780 14
70.46697 5
70.52613 11
70.58529 10
70.64446 12
70.70362 25
70.76279 9
70.82195 28
70.88111 19
70.94028 22
70.99945 21
71.05861 7
71.11777 14
71.17694 21
71.23610 23
71.29527 18
71.35443 14
71.41359 8
71.47276 11
71.53192 18
71.59108 19
71.65025 31
71.70941 34
71.76858 53
71.82774 98
71.88690 116
71.94607 101
72.00524 61
72.0644  29
72.12356 35
72.18273 34
72.24189 44
72.30105 32
72.36022 11
72.41938 14
72.47855 8
72.53771 15
72.59687 19
72.65604 3
72.71521 4
72.77436 2
72.83353 13
72.8927  15
72.95186 13
73.01102 14
73.07019 9
73.12935 13
73.18852 14
73.24768 13
73.30684 14
73.36601 20
73.42517 18
73.48434 10
73.54350 8
73.60266 18
73.66183 15
73.72100 17
73.78015 23
73.83932 19
73.89849 27
73.95765 22
74.01681 25
74.07598 20
74.13514 17
74.19431 12
74.25347 15
74.31263 24
74.37180 12
74.43096 11
74.49012 14
74.54929 14
74.60845 15
74.66762 4
74.72678 9
74.78595 12
74.84511 13
74.90428 22
74.96344 14
75.02260 20
75.08177 25
75.14093 22
75.20009 18
75.25926 9
75.31842 14
75.37759 5
75.43675 24
75.49591 18
75.55508 10
75.61425 15
75.67340 3
75.73257 16
75.79174 16
75.85090 8
75.91007 17
75.96923 15
76.02839 8
76.08756 14
76.14672 7
76.20588 11
76.26505 11
76.32421 13
76.38338 12
76.44254 3
76.50170 4
76.56087 10
76.62004 10
76.67919 8
76.73836 14
76.79753 18
76.85669 9
76.91585 15
76.97502 8
77.03418 6
77.09335 5
77.15251 6
77.21167 3
77.27084 7
77.33000 11
77.38916 8
77.44833 6
77.5075  21
77.56666 15
77.62582 12
77.68499 27
77.74415 12
77.80332 11
77.86248 13
77.92164 0
77.98081 9
78.03997 13
78.09913 11
78.15830 7
78.21746 3
78.27663 5
78.3358  9
78.39495 5
78.45412 14
78.51329 5
78.57245 6
78.63161 6
78.69078 3
78.74994 12
78.80911 14
78.86827 7
78.92743 15
78.98660 16
79.04576 11
79.10492 17
79.16409 14
79.22325 13
79.28242 19
79.34158 12
79.40074 10
79.45991 9
79.51908 6
79.57823 9
79.63740 6
79.69657 11
79.75573 5
79.81489 2
79.87406 8
79.93322 9
79.99239 4
80.05155 2
80.11071 3
80.16988 3
80.22905 9
80.28820 4
80.34737 5
80.40654 8
80.46570 10
80.52486 11
80.58403 16
80.64319 17
80.70236 27
80.76152 29
80.82068 25
80.87985 14
80.93901 13
80.99818 4
81.05734 6
81.11650 11
81.17567 2
81.23484 1
81.29399 10
81.35316 8
81.41233 11
81.47149 6
81.53065 7
81.58982 16
81.64898 14
81.70815 9
81.76731 9
81.82647 9
81.88564 10
81.94480 10
82.00396 9
82.06313 16
82.12229 11
82.18146 16
82.24062 17
82.29978 9
82.35895 4
82.41812 6
82.47728 9
82.53644 10
82.59561 12
82.65477 23
82.71393 35
82.77310 49
82.83226 49
82.89143 57
82.95059 48
83.00975 24
83.06892 20
83.12809 23
83.18725 12
83.24641 8
83.30558 10
83.36474 6
83.42391 15
83.48307 20
83.54223 5
83.60140 5
83.66056 6
83.71972 4
83.77889 1
83.83805 6
83.89722 19
83.95638 26
84.01554 13
84.07471 6
84.13388 11
84.19303 12
84.25220 11
84.31137 10
84.37053 17
84.42969 19
84.48886 14
84.54802 10
84.60719 16
84.66635 11
84.72551 17
84.78468 31
84.84384 39
84.90300 31
84.96217 31
85.02133 16
85.08050 8
85.13966 11
85.19883 5
85.25799 11
85.31716 11
85.37632 17
85.43548 20
85.49465 22
85.55381 24
85.61298 13
85.67214 3
85.73130 3
85.79047 15
85.84964 27
85.90879 15
85.96796 16
86.02713 19
86.08629 14
86.14545 5
86.20462 21
86.26378 24
86.32295 13
86.38211 7
86.44127 17
86.50044 13
86.55960 17
86.61876 14
86.67793 10
86.73709 19
86.79626 37
86.85542 27
86.91458 20
86.97375 13
87.03292 10
87.09207 6
87.15124 5
87.21041 4
87.26957 18
87.32873 25
87.38790 22
87.44706 23
87.50623 25
87.56539 18
87.62455 13
87.68372 13
87.74288 14
87.80204 16
87.86121 16
87.92038 23
87.97954 14
88.03871 20
88.09787 28
88.15703 21
88.21620 13
88.27536 30
88.33452 15
88.39369 8
88.45285 25
88.51202 17
88.57118 20
88.63034 30
88.68951 24
88.74868 18
88.80783 26
88.86700 15
88.92617 6
88.98533 8
89.04449 7
89.10366 3
89.16282 8
89.22199 18
89.28115 13
89.34031 12
89.39948 19
89.45864 24
89.51780 24
89.57697 39
89.63613 45
89.69530 35
89.75446 33
89.81362 32
89.87279 23
89.93196 19
89.99111 18