File: XRD/800-X.uxd
;content of D:\data\result\mecham\???\20231225-89741\800-X.raw - (Diffrac Plus V4 file)
_FILEVERSION = 3
_SAMPLE
_+SAMPLE
_USER = Lab Manager
_GONIOMETER_CODE = 21
_STAGE_CODE = 7
; Goniometer : D8 theta/theta, stage : Chi drive
_SAMPLE_CHANGER_CODE = 0
_ATTACHMENTS_CODE = 0
_GONIOMETER_RADIUS = 280
_MONOCHROMATOR = 0
; Incident beam monochromator : None
_BETA_FILTER = N
_ANALYZER_CODE = 0
; Received beam analyzer : None
_DATEMEASURED = 25-Dec-2023 12:01:33
_RUNTIME = 11.18897
_WL_UNIT = A
_WL1 = 1.5406
_WL2 = 1.54439
_WL3 = 1.39222
_WLRATIO = 0.5
_ANODE = Cu
_V4_INF_USER = Lab Manager
_V4_INF_CREATOR = V5Converter
_V4_INF_CREATOR_VERSION = 4.4.16.0

; Data for range 1
_DRIVE = COUPLED
_STEPTIME = 57.6
_STEPSIZE = 0.019721
_STEPMODE = C
_START = 20
_THETA = 10
_2THETA = 20
_KHI = 0
_PHI = 0
_DETECTORSLIT = out
_AUX1 = 0
_TIMESTARTED = 0
_KV = 40
_MA = 40
_RANGE_WL = 1.5406
_3DPLANE = 0
_V4_PSD2THETA = 9999
_V4_PSDCHANNEL1 = 0
_V4_PSDAPERTURE = 2.839876
_V4_PSDTYPE = 5
_V4_PSDFIXED = 0
_V4_COUNTERS_MASK = 1
_V4_DRIVES_MASK = 0
_V4_ENCODERS_MASK = 0
_2THETACOUNTS = 1
; 2THETA	Cnt2_D1
20	85
20.0592	75
20.1183	90
20.1775	88
20.2367	76
20.2958	99
20.355	87
20.4141	91
20.4733	94
20.5325	76
20.5916	90
20.6508	86
20.71	96
20.7691	100
20.8283	84
20.8875	96
20.9466	76
21.0058	94
21.065	76
21.1241	83
21.1833	86
21.2424	98
21.3016	96
21.3608	87
21.4199	80
21.4791	79
21.5383	92
21.5974	85
21.6566	73
21.7158	81
21.7749	84
21.8341	84
21.8933	71
21.9524	73
22.0116	70
22.0707	97
22.1299	61
22.1891	82
22.2482	63
22.3074	84
22.3666	75
22.4257	69
22.4849	88
22.5441	62
22.6032	77
22.6624	78
22.7215	78
22.7807	65
22.8399	81
22.899	72
22.9582	70
23.0174	76
23.0765	73
23.1357	74
23.1949	82
23.254	79
23.3132	66
23.3724	63
23.4315	76
23.4907	74
23.5498	70
23.609	68
23.6682	69
23.7273	78
23.7865	85
23.8457	73
23.9048	69
23.964	72
24.0232	96
24.0823	123
24.1415	326
24.2006	700
24.2598	481
24.319	162
24.3781	94
24.4373	100
24.4965	77
24.5556	75
24.6148	70
24.674	64
24.7331	84
24.7923	64
24.8515	65
24.9106	70
24.9698	68
25.0289	79
25.0881	71
25.1473	71
25.2064	77
25.2656	66
25.3248	73
25.3839	82
25.4431	67
25.5023	68
25.5614	77
25.6206	72
25.6798	91
25.7389	72
25.7981	60
25.8572	71
25.9164	74
25.9756	64
26.0347	56
26.0939	61
26.1531	68
26.2122	53
26.2714	73
26.3306	79
26.3897	65
26.4489	61
26.5081	74
26.5672	50
26.6264	58
26.6855	66
26.7447	75
26.8039	70
26.863	76
26.9222	52
26.9814	78
27.0405	59
27.0997	58
27.1589	61
27.218	53
27.2772	67
27.3363	64
27.3955	70
27.4547	50
27.5138	61
27.573	56
27.6322	63
27.6913	60
27.7505	72
27.8097	54
27.8688	54
27.928	55
27.9872	70
28.0463	47
28.1055	55
28.1646	59
28.2238	61
28.283	60
28.3421	63
28.4013	73
28.4605	55
28.5196	54
28.5788	64
28.638	56
28.6971	69
28.7563	56
28.8154	58
28.8746	78
28.9338	44
28.9929	62
29.0521	53
29.1113	49
29.1704	64
29.2296	51
29.2888	44
29.3479	44
29.4071	46
29.4663	74
29.5254	49
29.5846	53
29.6437	63
29.7029	42
29.7621	42
29.8212	51
29.8804	53
29.9396	62
29.9987	46
30.0579	59
30.1171	76
30.1762	70
30.2354	62
30.2946	60
30.3537	69
30.4129	56
30.472	47
30.5312	48
30.5904	50
30.6495	39
30.7087	54
30.7679	58
30.827	48
30.8862	69
30.9454	47
31.0045	59
31.0637	57
31.1228	64
31.182	46
31.2412	56
31.3003	43
31.3595	53
31.4187	54
31.4778	64
31.537	67
31.5962	63
31.6553	46
31.7145	58
31.7737	48
31.8328	58
31.892	55
31.9511	45
32.0103	48
32.0695	51
32.1286	56
32.1878	63
32.247	59
32.3061	62
32.3653	70
32.4245	76
32.4836	68
32.5428	55
32.602	61
32.6611	64
32.7203	60
32.7794	77
32.8386	74
32.8978	93
32.9569	68
33.0161	135
33.0753	271
33.1344	1078
33.1936	2999
33.2528	2784
33.3119	1665
33.3711	377
33.4302	144
33.4894	108
33.5486	61
33.6077	72
33.6669	73
33.7261	57
33.7852	56
33.8444	66
33.9036	51
33.9627	64
34.0219	58
34.0811	50
34.1402	52
34.1994	63
34.2585	55
34.3177	40
34.3769	56
34.436	47
34.4952	61
34.5544	64
34.6135	58
34.6727	58
34.7319	53
34.791	56
34.8502	44
34.9094	68
34.9685	54
35.0277	47
35.0868	55
35.146	56
35.2052	41
35.2643	57
35.3235	68
35.3827	109
35.4418	275
35.501	399
35.5602	335
35.6193	264
35.6785	207
35.7376	136
35.7968	97
35.856	61
35.9151	52
35.9743	43
36.0335	45
36.0926	49
36.1518	54
36.211	51
36.2701	36
36.3293	53
36.3885	57
36.4476	47
36.5068	47
36.5659	45
36.6251	49
36.6843	43
36.7434	40
36.8026	47
36.8618	44
36.9209	49
36.9801	48
37.0393	50
37.0984	51
37.1576	53
37.2168	63
37.2759	45
37.3351	63
37.3942	53
37.4534	34
37.5126	40
37.5717	46
37.6309	52
37.6901	39
37.7492	40
37.8084	41
37.8676	44
37.9267	47
37.9859	43
38.045	46
38.1042	35
38.1634	41
38.2225	54
38.2817	44
38.3409	46
38.4	55
38.4592	40
38.5184	45
38.5775	43
38.6367	54
38.6959	39
38.755	58
38.8142	43
38.8733	44
38.9325	40
38.9917	35
39.0508	33
39.11	33
39.1692	47
39.2283	48
39.2875	72
39.3467	69
39.4058	62
39.465	43
39.5241	47
39.5833	36
39.6425	44
39.7016	38
39.7608	33
39.82	34
39.8791	36
39.9383	38
39.9975	46
40.0566	41
40.1158	43
40.175	32
40.2341	50
40.2933	34
40.3524	30
40.4116	33
40.4708	46
40.5299	41
40.5891	37
40.6483	54
40.7074	41
40.7666	62
40.8258	122
40.8849	192
40.9441	125
41.0033	129
41.0624	66
41.1216	47
41.1807	42
41.2399	46
41.2991	36
41.3582	34
41.4174	41
41.4766	40
41.5357	51
41.5949	54
41.6541	37
41.7132	31
41.7724	45
41.8316	36
41.8907	40
41.9499	27
42.009	42
42.0682	26
42.1274	32
42.1865	44
42.2457	36
42.3049	42
42.364	36
42.4232	34
42.4824	47
42.5415	29
42.6007	44
42.6598	36
42.719	35
42.7782	40
42.8373	35
42.8965	43
42.9557	33
43.0148	52
43.074	67
43.1332	88
43.1923	68
43.2515	48
43.3107	57
43.3698	39
43.429	39
43.4881	52
43.5473	35
43.6065	46
43.6656	41
43.7248	46
43.784	27
43.8431	46
43.9023	41
43.9615	35
44.0206	41
44.0798	44
44.1389	44
44.1981	35
44.2573	53
44.3164	35
44.3756	42
44.4348	32
44.4939	26
44.5531	42
44.6123	27
44.6714	26
44.7306	25
44.7898	31
44.8489	29
44.9081	38
44.9672	30
45.0264	29
45.0856	29
45.1447	36
45.2039	34
45.2631	33
45.3222	35
45.3814	27
45.4406	34
45.4997	25
45.5589	33
45.6181	25
45.6772	26
45.7364	26
45.7955	36
45.8547	41
45.9139	22
45.973	28
46.0322	28
46.0914	29
46.1505	36
46.2097	41
46.2689	33
46.328	28
46.3872	43
46.4463	38
46.5055	38
46.5647	35
46.6238	24
46.683	26
46.7422	34
46.8013	30
46.8605	33
46.9197	35
46.9788	33
47.038	25
47.0972	35
47.1563	33
47.2155	32
47.2746	32
47.3338	33
47.393	36
47.4521	33
47.5113	30
47.5705	28
47.6296	39
47.6888	49
47.748	25
47.8071	35
47.8663	25
47.9255	38
47.9846	32
48.0438	38
48.1029	45
48.1621	50
48.2213	30
48.2804	38
48.3396	31
48.3988	36
48.4579	27
48.5171	40
48.5763	31
48.6354	25
48.6946	33
48.7537	28
48.8129	26
48.8721	36
48.9312	35
48.9904	39
49.0496	34
49.1087	42
49.1679	44
49.2271	46
49.2862	77
49.3454	162
49.4046	291
49.4637	446
49.5229	416
49.582	254
49.6412	198
49.7004	98
49.7595	41
49.8187	35
49.8779	38
49.937	44
49.9962	28
50.0554	42
50.1145	35
50.1737	59
50.2329	33
50.292	32
50.3512	38
50.4103	37
50.4695	39
50.5287	35
50.5878	39
50.647	37
50.7062	32
50.7653	39
50.8245	33
50.8837	33
50.9428	35
51.002	25
51.0611	27
51.1203	39
51.1795	33
51.2386	29
51.2978	27
51.357	43
51.4161	24
51.4753	30
51.5345	27
51.5936	34
51.6528	36
51.712	44
51.7711	34
51.8303	23
51.8894	35
51.9486	29
52.0078	34
52.0669	29
52.1261	31
52.1853	27
52.2444	24
52.3036	32
52.3628	36
52.4219	44
52.4811	25
52.5403	35
52.5994	38
52.6586	29
52.7177	44
52.7769	34
52.8361	30
52.8952	32
52.9544	41
53.0136	25
53.0727	37
53.1319	21
53.1911	34
53.2502	29
53.3094	36
53.3685	40
53.4277	48
53.4869	55
53.546	58
53.6052	69
53.6644	39
53.7235	40
53.7827	53
53.8419	49
53.901	83
53.9602	190
54.0194	370
54.0785	455
54.1377	364
54.1968	270
54.256	186
54.3152	112
54.3743	40
54.4335	30
54.4927	44
54.5518	42
54.611	37
54.6702	35
54.7293	29
54.7885	39
54.8477	39
54.9068	35
54.966	38
55.0251	35
55.0843	31
55.1435	32
55.2026	34
55.2618	36
55.321	36
55.3801	38
55.4393	38
55.4985	43
55.5576	41
55.6168	40
55.6759	28
55.7351	47
55.7943	23
55.8534	45
55.9126	33
55.9718	47
56.0309	28
56.0901	35
56.1493	28
56.2084	35
56.2676	35
56.3268	47
56.3859	38
56.4451	37
56.5042	37
56.5634	31
56.6226	36
56.6817	44
56.7409	50
56.8001	50
56.8592	58
56.9184	112
56.9776	91
57.0367	114
57.0959	89
57.155	76
57.2142	83
57.2734	44
57.3325	53
57.3917	45
57.4509	84
57.51	122
57.5692	172
57.6284	149
57.6875	128
57.7467	106
57.8059	84
57.865	55
57.9242	55
57.9833	26
58.0425	41
58.1017	40
58.1608	46
58.22	46
58.2792	46
58.3383	40
58.3975	46
58.4567	40
58.5158	45
58.575	42
58.6342	53
58.6933	36
58.7525	38
58.8116	40
58.8708	42
58.93	40
58.9891	54
59.0483	54
59.1075	38
59.1666	46
59.2258	46
59.285	34
59.3441	42
59.4033	47
59.4624	41
59.5216	54
59.5808	43
59.6399	44
59.6991	46
59.7583	45
59.8174	38
59.8766	55
59.9358	44
59.9949	42
60.0541	45
60.1133	36
60.1724	38
60.2316	58
60.2907	52
60.3499	55
60.4091	56
60.4682	60
60.5274	48
60.5866	54
60.6457	54
60.7049	51
60.7641	48
60.8232	42
60.8824	52
60.9416	51
61.0007	66
61.0599	49
61.119	64
61.1782	55
61.2374	50
61.2965	56
61.3557	57
61.4149	62
61.474	50
61.5332	69
61.5924	45
61.6515	50
61.7107	50
61.7698	52
61.829	61
61.8882	61
61.9473	44
62.0065	59
62.0657	70
62.1248	60
62.184	73
62.2432	88
62.3023	121
62.3615	167
62.4207	234
62.4798	223
62.539	195
62.5981	196
62.6573	147
62.7165	128
62.7756	102
62.8348	85
62.894	91
62.9531	91
63.0123	79
63.0715	72
63.1306	92
63.1898	93
63.249	56
63.3081	55
63.3673	63
63.4264	65
63.4856	73
63.5448	78
63.6039	74
63.6631	69
63.7223	65
63.7814	73
63.8406	85
63.8998	81
63.9589	95
64.0181	101
64.0772	88
64.1364	95
64.1956	89
64.2547	69
64.3139	68
64.3731	80
64.4322	69
64.4914	71
64.5506	73
64.6097	76
64.6689	76
64.7281	83
64.7872	104
64.8464	83
64.9055	82
64.9647	73
65.0239	99
65.083	67
65.1422	91
65.2014	92
65.2605	76
65.3197	102
65.3789	60
65.438	90
65.4972	77
65.5563	80
65.6155	72
65.6747	85
65.7338	84
65.793	71
65.8522	85
65.9113	85
65.9705	113
66.0297	107
66.0888	84
66.148	94
66.2072	94
66.2663	99
66.3255	104
66.3846	89
66.4438	84
66.503	85
66.5621	99
66.6213	92
66.6805	107
66.7396	92
66.7988	94
66.858	85
66.9171	91
66.9763	101
67.0355	91
67.0946	96
67.1538	100
67.2129	98
67.2721	76
67.3313	103
67.3904	105
67.4496	84
67.5088	103
67.5679	85
67.6271	100
67.6863	81
67.7454	96
67.8046	97
67.8637	119
67.9229	84
67.9821	100
68.0412	94
68.1004	104
68.1596	98
68.2187	116
68.2779	105
68.3371	112
68.3962	106
68.4554	114
68.5146	109
68.5737	86
68.6329	95
68.692	109
68.7512	119
68.8104	88
68.8695	100
68.9287	102
68.9879	102
69.047	112
69.1062	122
69.1654	107
69.2245	111
69.2837	115
69.3429	105
69.402	102
69.4612	115
69.5203	132
69.5795	153
69.6387	142
69.6978	153
69.757	122
69.8162	130
69.8753	98
69.9345	123
69.9937	125
70.0528	108
70.112	112
70.1711	112
70.2303	106
70.2895	96
70.3486	132
70.4078	112
70.467	107
70.5261	112
70.5853	114
70.6445	96
70.7036	118
70.7628	116
70.822	140
70.8811	125
70.9403	133
70.9994	127
71.0586	125
71.1178	102
71.1769	125
71.2361	132
71.2953	125
71.3544	135
71.4136	113
71.4728	120
71.5319	118
71.5911	125
71.6503	134
71.7094	149
71.7686	174
71.8277	216
71.8869	220
71.9461	213
72.0052	192
72.0644	194
72.1236	188
72.1827	157
72.2419	156
72.3011	146
72.3602	126
72.4194	140
72.4785	111
72.5377	97
72.5969	117
72.656	95
72.7152	109
72.7744	115
72.8335	108
72.8927	116
72.9519	129
73.011	117
73.0702	130
73.1294	121
73.1885	107
73.2477	103
73.3068	114
73.366	139
73.4252	116
73.4843	118
73.5435	106
73.6027	134
73.6618	113
73.721	121
73.7802	100
73.8393	125
73.8985	153
73.9577	140
74.0168	129
74.076	144
74.1351	130
74.1943	110
74.2535	135
74.3126	156
74.3718	106
74.431	105
74.4901	123
74.5493	105
74.6085	106
74.6676	109
74.7268	116
74.7859	106
74.8451	120
74.9043	122
74.9634	126
75.0226	123
75.0818	121
75.1409	124
75.2001	117
75.2593	106
75.3184	110
75.3776	113
75.4368	130
75.4959	130
75.5551	113
75.6142	119
75.6734	113
75.7326	119
75.7917	129
75.8509	98
75.9101	110
75.9692	144
76.0284	119
76.0876	121
76.1467	125
76.2059	121
76.2651	109
76.3242	132
76.3834	114
76.4425	113
76.5017	96
76.5609	87
76.62	119
76.6792	109
76.7384	112
76.7975	120
76.8567	118
76.9159	126
76.975	110
77.0342	118
77.0933	122
77.1525	118
77.2117	109
77.2708	111
77.33	105
77.3892	119
77.4483	91
77.5075	138
77.5667	120
77.6258	116
77.685	133
77.7442	127
77.8033	116
77.8625	113
77.9216	98
77.9808	112
78.04	135
78.0991	109
78.1583	116
78.2175	110
78.2766	115
78.3358	122
78.395	114
78.4541	109
78.5133	112
78.5725	100
78.6316	96
78.6908	93
78.7499	112
78.8091	130
78.8683	121
78.9274	134
78.9866	128
79.0458	124
79.1049	135
79.1641	117
79.2233	118
79.2824	134
79.3416	116
79.4007	115
79.4599	107
79.5191	129
79.5782	128
79.6374	103
79.6966	119
79.7557	123
79.8149	112
79.8741	118
79.9332	114
79.9924	100
80.0516	100
80.1107	106
80.1699	114
80.229	121
80.2882	99
80.3474	94
80.4065	106
80.4657	123
80.5249	112
80.584	134
80.6432	115
80.7024	140
80.7615	139
80.8207	113
80.8799	126
80.939	128
80.9982	123
81.0573	94
81.1165	127
81.1757	97
81.2348	85
81.294	109
81.3532	107
81.4123	119
81.4715	88
81.5307	130
81.5898	127
81.649	113
81.7081	118
81.7673	127
81.8265	105
81.8856	116
81.9448	103
82.004	85
82.0631	107
82.1223	126
82.1815	119
82.2406	122
82.2998	122
82.359	117
82.4181	113
82.4773	120
82.5364	108
82.5956	108
82.6548	129
82.7139	156
82.7731	162
82.8323	153
82.8914	160
82.9506	157
83.0098	138
83.0689	148
83.1281	131
83.1873	117
83.2464	117
83.3056	113
83.3647	121
83.4239	107
83.4831	124
83.5422	92
83.6014	106
83.6606	106
83.7197	110
83.7789	91
83.8381	100
83.8972	109
83.9564	115
84.0155	100
84.0747	104
84.1339	107
84.193	111
84.2522	117
84.3114	107
84.3705	109
84.4297	118
84.4889	103
84.548	105
84.6072	112
84.6664	95
84.7255	110
84.7847	122
84.8438	142
84.903	123
84.9622	125
85.0213	121
85.0805	109
85.1397	124
85.1988	104
85.258	99
85.3172	100
85.3763	120
85.4355	113
85.4946	104
85.5538	114
85.613	101
85.6721	98
85.7313	82
85.7905	103
85.8496	113
85.9088	101
85.968	95
86.0271	93
86.0863	114
86.1455	97
86.2046	118
86.2638	104
86.3229	101
86.3821	109
86.4413	105
86.5004	111
86.5596	111
86.6188	107
86.6779	101
86.7371	105
86.7963	132
86.8554	115
86.9146	112
86.9738	105
87.0329	110
87.0921	97
87.1512	116
87.2104	89
87.2696	97
87.3287	107
87.3879	110
87.4471	112
87.5062	101
87.5654	115
87.6246	118
87.6837	98
87.7429	115
87.802	98
87.8612	101
87.9204	125
87.9795	90
88.0387	89
88.0979	113
88.157	118
88.2162	95
88.2754	114
88.3345	114
88.3937	90
88.4529	109
88.512	98
88.5712	114
88.6303	108
88.6895	132
88.7487	114
88.8078	117
88.867	113
88.9262	94
88.9853	101
89.0445	97
89.1037	97
89.1628	95
89.222	103
89.2812	103
89.3403	97
89.3995	82
89.4586	120
89.5178	130
89.577	137
89.6361	133
89.6953	140
89.7545	137
89.8136	120
89.8728	116
89.932	126
89.9911	113