File: XRD/800-1.txt
?
20.0     6
20.05916 14
20.11832 19
20.17749 1
20.23665 11
20.29582 13
20.35498 13
20.41414 9
20.47331 19
20.53247 11
20.59164 13
20.65080 20
20.70996 8
20.76913 10
20.82829 14
20.88746 12
20.94662 2
21.00578 3
21.06495 16
21.12411 16
21.18328 6
21.24244 2
21.30161 15
21.36077 12
21.41993 13
21.47910 13
21.53826 11
21.59743 16
21.65659 15
21.71575 11
21.77492 16
21.83408 11
21.89325 4
21.95241 19
22.01158 8
22.07074 10
22.12990 13
22.18907 14
22.24823 11
22.3074  10
22.36656 10
22.42572 13
22.48489 9
22.54405 15
22.60322 21
22.66238 12
22.72154 7
22.78071 4
22.83987 10
22.89904 8
22.95820 14
23.01736 11
23.07653 10
23.13569 14
23.19486 26
23.25402 8
23.31318 8
23.37235 6
23.43151 1
23.49068 18
23.54984 10
23.60900 10
23.66817 26
23.72733 13
23.78650 12
23.84566 15
23.90483 10
23.96399 9
24.02315 16
24.08232 18
24.14148 20
24.20065 37
24.25981 67
24.31897 95
24.37814 161
24.43730 131
24.49647 97
24.55563 51
24.61479 36
24.67396 22
24.73312 16
24.79229 17
24.85145 6
24.91062 21
24.96978 16
25.02894 7
25.08811 8
25.14727 16
25.20644 12
25.26560 5
25.32476 10
25.38393 7
25.44309 16
25.50226 5
25.56142 12
25.62058 17
25.67975 8
25.73891 18
25.79808 19
25.85724 13
25.91640 20
25.97557 23
26.03473 18
26.09390 5
26.15306 15
26.21223 20
26.27139 10
26.33055 14
26.38972 20
26.44888 17
26.50805 10
26.56721 21
26.62637 13
26.68554 6
26.74470 16
26.80387 13
26.86303 15
26.92219 13
26.98136 11
27.04052 20
27.09969 16
27.15885 6
27.21801 25
27.27718 19
27.33634 20
27.39551 18
27.45467 25
27.51384 11
27.57300 11
27.63216 25
27.69133 13
27.75049 16
27.80966 20
27.86882 10
27.92798 20
27.98715 24
28.04631 14
28.10548 14
28.16464 25
28.22380 18
28.28297 21
28.34213 13
28.4013  13
28.46046 10
28.51963 24
28.57879 28
28.63795 22
28.69712 9
28.75628 11
28.81545 28
28.87461 14
28.93377 20
28.99294 25
29.05210 18
29.11127 14
29.17043 25
29.22959 14
29.28876 23
29.34792 17
29.40709 14
29.46625 26
29.52541 25
29.58458 8
29.64374 17
29.70291 23
29.76207 40
29.82123 43
29.88040 61
29.93956 60
29.99873 42
30.05789 38
30.11706 28
30.17622 24
30.23538 38
30.29455 27
30.35371 20
30.41288 18
30.47204 22
30.53120 22
30.59037 10
30.64953 13
30.7087  16
30.76786 22
30.82702 21
30.88619 21
30.94535 13
31.00452 27
31.06368 14
31.12285 12
31.18201 18
31.24117 8
31.30034 13
31.35950 16
31.41867 20
31.47783 16
31.53699 19
31.59616 19
31.65532 10
31.71449 21
31.77365 28
31.83281 10
31.89198 2
31.95114 18
32.01031 9
32.06947 13
32.12863 23
32.18780 24
32.24696 21
32.30613 13
32.36529 13
32.42446 9
32.48362 16
32.54278 13
32.60195 28
32.66111 17
32.72028 10
32.77944 15
32.83860 16
32.89777 19
32.95693 14
33.01610 20
33.07526 24
33.13443 44
33.19359 55
33.25275 72
33.31192 119
33.37108 156
33.43024 171
33.48941 157
33.54857 99
33.60774 63
33.66690 41
33.72607 51
33.78523 44
33.84439 21
33.90356 24
33.96272 22
34.02188 30
34.08105 17
34.14021 8
34.19938 19
34.25854 18
34.31771 15
34.37687 19
34.43603 17
34.49520 9
34.55436 29
34.61353 14
34.67269 14
34.73186 23
34.79102 24
34.85018 33
34.90935 26
34.96851 46
35.02767 81
35.08684 99
35.14600 122
35.20517 118
35.26433 96
35.32350 65
35.38266 69
35.44183 59
35.50099 23
35.56015 26
35.61932 35
35.67848 39
35.73764 58
35.79681 71
35.85597 64
35.91514 87
35.97430 105
36.03347 79
36.09263 76
36.15179 48
36.21096 21
36.27012 36
36.32928 34
36.38845 11
36.44761 19
36.50678 15
36.56594 13
36.62511 35
36.68427 23
36.74343 5
36.80260 23
36.86176 21
36.92092 30
36.98009 25
37.03926 9
37.09842 9
37.15758 17
37.21675 14
37.27591 5
37.33507 16
37.39424 16
37.45340 12
37.51257 17
37.57173 15
37.63090 10
37.69006 11
37.74922 22
37.80839 13
37.86755 6
37.92672 12
37.98588 12
38.04504 9
38.10421 27
38.16337 18
38.22254 6
38.28170 14
38.34087 9
38.40003 17
38.45919 24
38.51836 21
38.57752 11
38.63668 21
38.69585 12
38.75501 9
38.81418 15
38.87334 13
38.93251 9
38.99167 24
39.05083 18
39.11000 19
39.16916 23
39.22832 17
39.28749 14
39.34665 18
39.40582 8
39.46498 7
39.52415 17
39.58331 17
39.64247 16
39.70164 15
39.76080 19
39.81997 17
39.87913 18
39.93830 10
39.99746 19
40.05662 14
40.11579 6
40.17495 7
40.23411 22
40.29328 13
40.35244 8
40.41161 16
40.47077 21
40.52994 10
40.58910 5
40.64827 28
40.70743 25
40.76659 5
40.82576 4
40.88492 18
40.94408 27
41.00325 36
41.06241 23
41.12158 36
41.18074 64
41.23991 40
41.29907 36
41.35823 61
41.4174  38
41.47656 9
41.53572 17
41.59489 20
41.65405 23
41.71322 30
41.77238 20
41.83155 17
41.89071 20
41.94987 11
42.00904 12
42.06820 21
42.12737 14
42.18653 11
42.24570 12
42.30486 24
42.36402 32
42.42319 25
42.48235 31
42.54151 36
42.60068 30
42.65984 33
42.71901 41
42.77817 41
42.83734 38
42.89650 27
42.95566 25
43.01483 31
43.07399 38
43.13316 47
43.19232 25
43.25148 32
43.31065 50
43.36981 54
43.42898 79
43.48814 141
43.54731 261
43.60647 537
43.66563 1560
43.7248  3829
43.78396 4096
43.84312 1372
43.90229 401
43.96145 211
44.02062 81
44.07978 59
44.13895 65
44.19811 57
44.25727 49
44.31644 70
44.37560 65
44.43477 45
44.49393 20
44.55310 18
44.61226 26
44.67142 20
44.73059 15
44.78975 15
44.84891 17
44.90808 8
44.96724 9
45.02641 28
45.08557 17
45.14474 17
45.20390 13
45.26306 11
45.32223 13
45.38139 12
45.44055 22
45.49972 17
45.55888 10
45.61805 8
45.67721 13
45.73638 16
45.79554 8
45.85471 8
45.91387 16
45.97303 9
46.0322  0
46.09136 7
46.15052 17
46.20969 9
46.26885 4
46.32802 5
46.38718 5
46.44635 10
46.50551 14
46.56467 12
46.62384 0
46.68300 4
46.74217 7
46.80133 12
46.8605  19
46.91966 12
46.97882 9
47.03799 1
47.09715 0
47.15631 6
47.21548 12
47.27464 6
47.33381 4
47.39297 6
47.45214 8
47.51130 10
47.57046 3
47.62963 7
47.68879 14
47.74795 9
47.80712 13
47.86628 7
47.92545 8
47.98461 6
48.04378 2
48.10294 9
48.16210 13
48.22127 13
48.28043 7
48.3396  5
48.39876 5
48.45792 21
48.51709 9
48.57625 14
48.63542 6
48.69458 1
48.75375 4
48.81291 10
48.87207 6
48.93124 15
48.99040 18
49.04956 6
49.10873 1
49.1679  7
49.22706 13
49.28622 22
49.34539 20
49.40455 10
49.46371 7
49.52288 10
49.58204 19
49.64121 15
49.70037 22
49.75954 28
49.81870 23
49.87786 34
49.93703 46
49.99619 43
50.05535 14
50.11452 24
50.17368 43
50.23285 41
50.29201 33
50.35118 12
50.41034 14
50.46950 44
50.52867 63
50.58783 66
50.64699 93
50.70616 166
50.76532 315
50.82449 612
50.88365 1070
50.94282 1509
51.00198 1266
51.06115 568
51.12031 229
51.17947 142
51.23864 108
51.29780 57
51.35696 28
51.41613 19
51.47529 21
51.53446 31
51.59362 34
51.65279 31
51.71195 24
51.77111 21
51.83028 17
51.88944 8
51.94861 14
52.00777 15
52.06694 16
52.12610 12
52.18526 17
52.24443 7
52.30359 11
52.36275 20
52.42192 17
52.48108 15
52.54025 19
52.59941 15
52.65858 10
52.71774 11
52.77690 7
52.83607 12
52.89523 22
52.95439 23
53.01356 21
53.07272 13
53.13189 19
53.19105 18
53.25022 17
53.30938 13
53.36854 23
53.42771 20
53.48687 2
53.54604 11
53.60520 17
53.66436 15
53.72353 10
53.78269 16
53.84186 15
53.90102 14
53.96019 13
54.01935 16
54.07851 24
54.13768 20
54.19684 16
54.25601 15
54.31517 32
54.37434 35
54.43350 58
54.49266 63
54.55183 57
54.61099 64
54.67015 56
54.72932 43
54.78848 31
54.84765 35
54.90681 31
54.96598 29
55.02514 11
55.08430 15
55.14347 22
55.20263 24
55.26179 19
55.32096 13
55.38012 17
55.43929 14
55.49845 9
55.55762 11
55.61678 11
55.67594 11
55.73511 8
55.79427 4
55.85343 6
55.91260 14
55.97176 12
56.03093 15
56.09009 22
56.14926 12
56.20842 19
56.26759 30
56.32675 29
56.38591 21
56.44508 22
56.50424 20
56.56341 33
56.62257 38
56.68174 22
56.74090 12
56.80006 18
56.85923 24
56.91839 20
56.97755 17
57.03672 15
57.09588 12
57.15505 8
57.21421 17
57.27338 11
57.33254 8
57.39170 15
57.45087 23
57.51003 22
57.56919 22
57.62836 10
57.68752 11
57.74669 18
57.80585 19
57.86502 21
57.92418 16
57.98334 12
58.04251 11
58.10167 3
58.16083 6
58.22000 17
58.27916 16
58.33833 10
58.39749 10
58.45666 5
58.51582 9
58.57498 23
58.63415 13
58.69331 6
58.75248 11
58.81164 7
58.87081 6
58.92997 7
58.98914 12
59.04830 21
59.10746 13
59.16663 0
59.22579 5
59.28495 18
59.34412 13
59.40328 15
59.46245 11
59.52161 12
59.58078 10
59.63994 10
59.69910 14
59.75827 9
59.81743 11
59.87659 8
59.93576 21
59.99492 19
60.05409 11
60.11325 18
60.17242 10
60.23158 9
60.29074 12
60.34991 10
60.40907 10
60.46823 8
60.52740 11
60.58656 15
60.64573 13
60.70489 6
60.76406 8
60.82322 13
60.88238 16
60.94155 18
61.00071 6
61.05987 4
61.11904 7
61.17820 7
61.23737 8
61.29653 6
61.35570 15
61.41486 26
61.47403 19
61.53319 10
61.59235 7
61.65152 18
61.71068 5
61.76985 21
61.82901 26
61.88818 28
61.94734 17
62.00650 7
62.06567 24
62.12483 28
62.18399 24
62.24316 25
62.30232 20
62.36149 17
62.42065 16
62.47982 13
62.53898 18
62.59814 22
62.65731 23
62.71647 23
62.77563 30
62.83480 31
62.89396 30
62.95313 28
63.01229 23
63.07146 6
63.13062 26
63.18978 25
63.24895 39
63.30811 25
63.36727 28
63.42644 18
63.48560 13
63.54477 12
63.60393 10
63.66310 13
63.72226 9
63.78142 11
63.84059 19
63.89975 15
63.95892 23
64.01808 6
64.07724 13
64.13641 13
64.19558 13
64.25474 19
64.31390 18
64.37307 25
64.43223 22
64.49140 24
64.55056 19
64.60972 20
64.66889 21
64.72805 19
64.78721 26
64.84638 22
64.90554 25
64.96471 19
65.02387 15
65.08303 19
65.14220 26
65.20137 26
65.26052 20
65.31969 18
65.37886 18
65.43802 12
65.49718 19
65.55635 19
65.61551 15
65.67468 14
65.73384 14
65.79300 24
65.85217 28
65.91133 14
65.97049 12
66.02966 19
66.08882 24
66.14799 16
66.20716 12
66.26631 19
66.32548 12
66.38465 16
66.44381 16
66.50297 14
66.56214 24
66.62130 28
66.68047 21
66.73963 12
66.79879 16
66.85796 21
66.91713 27
66.97628 18
67.03545 23
67.09462 21
67.15378 16
67.21294 6
67.27211 18
67.33127 19
67.39044 17
67.4496  24
67.50876 22
67.56793 27
67.62709 17
67.68625 15
67.74542 16
67.80458 12
67.86375 21
67.92291 28
67.98207 28
68.04124 8
68.10041 19
68.15956 16
68.21873 10
68.27790 32
68.33706 25
68.39622 20
68.45539 17
68.51455 14
68.57372 20
68.63288 13
68.69204 19
68.75121 8
68.81037 23
68.86954 31
68.92870 24
68.98786 23
69.04703 14
69.10620 7
69.16535 10
69.22452 13
69.28369 16
69.34285 16
69.40201 19
69.46118 19
69.52034 14
69.57951 24
69.63867 11
69.69783 12
69.75700 5
69.81617 28
69.87532 27
69.93449 26
69.99366 25
70.05282 13
70.11198 6
70.17115 8
70.23031 12
70.28948 11
70.34864 24
70.40780 16
70.46697 9
70.52613 15
70.58529 9
70.64446 15
70.70362 19
70.76279 14
70.82195 22
70.88111 8
70.94028 19
70.99945 23
71.05861 8
71.11777 21
71.17694 11
71.23610 14
71.29527 4
71.35443 16
71.41359 40
71.47276 24
71.53192 13
71.59108 6
71.65025 11
71.70941 8
71.76858 6
71.82774 13
71.88690 18
71.94607 5
72.00524 30
72.0644  22
72.12356 13
72.18273 16
72.24189 16
72.30105 8
72.36022 13
72.41938 13
72.47855 19
72.53771 18
72.59687 6
72.65604 18
72.71521 14
72.77436 20
72.83353 14
72.8927  3
72.95186 14
73.01102 19
73.07019 14
73.12935 16
73.18852 7
73.24768 19
73.30684 18
73.36601 13
73.42517 24
73.48434 13
73.54350 9
73.60266 12
73.66183 22
73.72100 16
73.78015 11
73.83932 12
73.89849 6
73.95765 11
74.01681 18
74.07598 18
74.13514 27
74.19431 23
74.25347 18
74.31263 9
74.37180 11
74.43096 17
74.49012 28
74.54929 33
74.60845 66
74.66762 106
74.72678 212
74.78595 397
74.84511 487
74.90428 500
74.96344 402
75.02260 212
75.08177 113
75.14093 50
75.20009 22
75.25926 17
75.31842 25
75.37759 19
75.43675 12
75.49591 17
75.55508 18
75.61425 16
75.67340 17
75.73257 12
75.79174 16
75.85090 5
75.91007 11
75.96923 10
76.02839 3
76.08756 13
76.14672 26
76.20588 16
76.26505 12
76.32421 10
76.38338 16
76.44254 18
76.50170 15
76.56087 9
76.62004 9
76.67919 5
76.73836 11
76.79753 13
76.85669 9
76.91585 4
76.97502 9
77.03418 14
77.09335 10
77.15251 6
77.21167 24
77.27084 23
77.33000 14
77.38916 18
77.44833 6
77.5075  7
77.56666 12
77.62582 7
77.68499 11
77.74415 12
77.80332 14
77.86248 13
77.92164 22
77.98081 16
78.03997 16
78.09913 9
78.15830 12
78.21746 6
78.27663 8
78.3358  9
78.39495 18
78.45412 20
78.51329 13
78.57245 13
78.63161 15
78.69078 16
78.74994 7
78.80911 13
78.86827 19
78.92743 16
78.98660 25
79.04576 16
79.10492 12
79.16409 5
79.22325 12
79.28242 19
79.34158 14
79.40074 8
79.45991 9
79.51908 6
79.57823 24
79.63740 23
79.69657 14
79.75573 20
79.81489 19
79.87406 11
79.93322 13
79.99239 26
80.05155 26
80.11071 5
80.16988 13
80.22905 6
80.28820 5
80.34737 15
80.40654 14
80.46570 8
80.52486 17
80.58403 17
80.64319 18
80.70236 20
80.76152 22
80.82068 25
80.87985 20
80.93901 18
80.99818 19
81.05734 23
81.11650 8
81.17567 4
81.23484 20
81.29399 13
81.35316 12
81.41233 18
81.47149 11
81.53065 19
81.58982 34
81.64898 16
81.70815 18
81.76731 25
81.82647 0
81.88564 15
81.94480 13
82.00396 8
82.06313 20
82.12229 21
82.18146 30
82.24062 25
82.29978 15
82.35895 12
82.41812 13
82.47728 26
82.53644 18
82.59561 18
82.65477 19
82.71393 16
82.77310 30
82.83226 30
82.89143 20
82.95059 28
83.00975 22
83.06892 18
83.12809 27
83.18725 11
83.24641 12
83.30558 23
83.36474 21
83.42391 29
83.48307 23
83.54223 10
83.60140 17
83.66056 23
83.71972 14
83.77889 13
83.83805 23
83.89722 25
83.95638 28
84.01554 19
84.07471 23
84.13388 14
84.19303 10
84.25220 25
84.31137 21
84.37053 23
84.42969 23
84.48886 31
84.54802 35
84.60719 19
84.66635 21
84.72551 10
84.78468 8
84.84384 11
84.90300 13
84.96217 11
85.02133 29
85.08050 24
85.13966 17
85.19883 9
85.25799 10
85.31716 19
85.37632 17
85.43548 20
85.49465 23
85.55381 19
85.61298 22
85.67214 17
85.73130 18
85.79047 8
85.84964 15
85.90879 12
85.96796 11
86.02713 25
86.08629 18
86.14545 17
86.20462 16
86.26378 19
86.32295 16
86.38211 15
86.44127 12
86.50044 21
86.55960 19
86.61876 17
86.67793 21
86.73709 22
86.79626 9
86.85542 18
86.91458 19
86.97375 15
87.03292 18
87.09207 25
87.15124 12
87.21041 17
87.26957 15
87.32873 19
87.38790 7
87.44706 12
87.50623 24
87.56539 27
87.62455 20
87.68372 10
87.74288 12
87.80204 14
87.86121 21
87.92038 18
87.97954 17
88.03871 11
88.09787 18
88.15703 15
88.21620 4
88.27536 9
88.33452 22
88.39369 23
88.45285 22
88.51202 27
88.57118 24
88.63034 20
88.68951 18
88.74868 20
88.80783 4
88.86700 0
88.92617 19
88.98533 34
89.04449 35
89.10366 18
89.16282 18
89.22199 12
89.28115 10
89.34031 12
89.39948 19
89.45864 20
89.51780 25
89.57697 32
89.63613 29
89.69530 15
89.75446 18
89.81362 19
89.87279 14
89.93196 15
89.99111 19