File: XRD/800-1.uxd
;content of D:\data\result\mecham\???\20231225-89741\800-1.raw - (Diffrac Plus V4 file)
_FILEVERSION = 3
_SAMPLE
_+SAMPLE
_USER = Lab Manager
_GONIOMETER_CODE = 21
_STAGE_CODE = 7
; Goniometer : D8 theta/theta, stage : Chi drive
_SAMPLE_CHANGER_CODE = 0
_ATTACHMENTS_CODE = 0
_GONIOMETER_RADIUS = 280
_MONOCHROMATOR = 0
; Incident beam monochromator : None
_BETA_FILTER = N
_ANALYZER_CODE = 0
; Received beam analyzer : None
_DATEMEASURED = 25-Dec-2023 11:42:07
_RUNTIME = 11.1886
_WL_UNIT = A
_WL1 = 1.5406
_WL2 = 1.54439
_WL3 = 1.39222
_WLRATIO = 0.5
_ANODE = Cu
_V4_INF_USER = Lab Manager
_V4_INF_CREATOR = V5Converter
_V4_INF_CREATOR_VERSION = 4.4.16.0

; Data for range 1
_DRIVE = COUPLED
_STEPTIME = 57.6
_STEPSIZE = 0.019721
_STEPMODE = C
_START = 20
_THETA = 10
_2THETA = 20
_KHI = 0
_PHI = 0
_DETECTORSLIT = out
_AUX1 = 0
_TIMESTARTED = 0
_KV = 40
_MA = 40
_RANGE_WL = 1.5406
_3DPLANE = 0
_V4_PSD2THETA = 9999
_V4_PSDCHANNEL1 = 0
_V4_PSDAPERTURE = 2.839876
_V4_PSDTYPE = 5
_V4_PSDFIXED = 0
_V4_COUNTERS_MASK = 1
_V4_DRIVES_MASK = 0
_V4_ENCODERS_MASK = 0
_2THETACOUNTS = 1
; 2THETA	Cnt2_D1
20	185
20.0592	158
20.1183	159
20.1775	150
20.2367	146
20.2958	162
20.355	187
20.4141	164
20.4733	165
20.5325	175
20.5916	167
20.6508	190
20.71	170
20.7691	167
20.8283	171
20.8875	166
20.9466	165
21.0058	151
21.065	167
21.1241	173
21.1833	159
21.2424	156
21.3016	189
21.3608	165
21.4199	159
21.4791	179
21.5383	175
21.5974	170
21.6566	185
21.7158	190
21.7749	176
21.8341	163
21.8933	160
21.9524	177
22.0116	174
22.0707	162
22.1299	186
22.1891	167
22.2482	168
22.3074	157
22.3666	175
22.4257	161
22.4849	171
22.5441	173
22.6032	184
22.6624	167
22.7215	153
22.7807	158
22.8399	164
22.899	152
22.9582	181
23.0174	156
23.0765	170
23.1357	177
23.1949	193
23.254	157
23.3132	170
23.3724	162
23.4315	148
23.4907	172
23.5498	165
23.609	151
23.6682	187
23.7273	168
23.7865	175
23.8457	146
23.9048	166
23.964	168
24.0232	171
24.0823	167
24.1415	175
24.2006	199
24.2598	223
24.319	271
24.3781	382
24.4373	346
24.4965	345
24.5556	252
24.6148	200
24.674	187
24.7331	181
24.7923	188
24.8515	159
24.9106	161
24.9698	140
25.0289	169
25.0881	156
25.1473	169
25.2064	161
25.2656	152
25.3248	164
25.3839	154
25.4431	170
25.5023	153
25.5614	146
25.6206	159
25.6798	159
25.7389	161
25.7981	161
25.8572	158
25.9164	185
25.9756	191
26.0347	141
26.0939	148
26.1531	170
26.2122	159
26.2714	157
26.3306	145
26.3897	171
26.4489	161
26.5081	148
26.5672	152
26.6264	129
26.6855	162
26.7447	166
26.8039	147
26.863	164
26.9222	147
26.9814	155
27.0405	175
27.0997	157
27.1589	157
27.218	147
27.2772	172
27.3363	167
27.3955	165
27.4547	173
27.5138	156
27.573	152
27.6322	176
27.6913	160
27.7505	153
27.8097	162
27.8688	153
27.928	154
27.9872	157
28.0463	176
28.1055	142
28.1646	173
28.2238	138
28.283	157
28.3421	151
28.4013	169
28.4605	147
28.5196	170
28.5788	171
28.638	175
28.6971	140
28.7563	145
28.8154	160
28.8746	157
28.9338	166
28.9929	167
29.0521	160
29.1113	152
29.1704	153
29.2296	155
29.2888	173
29.3479	153
29.4071	164
29.4663	157
29.5254	171
29.5846	146
29.6437	161
29.7029	163
29.7621	180
29.8212	177
29.8804	203
29.9396	242
29.9987	185
30.0579	170
30.1171	165
30.1762	172
30.2354	156
30.2946	169
30.3537	156
30.4129	156
30.472	178
30.5312	166
30.5904	161
30.6495	158
30.7087	154
30.7679	156
30.827	155
30.8862	139
30.9454	153
31.0045	154
31.0637	136
31.1228	147
31.182	145
31.2412	137
31.3003	158
31.3595	164
31.4187	166
31.4778	160
31.537	175
31.5962	151
31.6553	148
31.7145	170
31.7737	164
31.8328	158
31.892	144
31.9511	160
32.0103	147
32.0695	165
32.1286	159
32.1878	169
32.247	142
32.3061	156
32.3653	162
32.4245	169
32.4836	159
32.5428	139
32.602	163
32.6611	148
32.7203	147
32.7794	152
32.8386	149
32.8978	151
32.9569	148
33.0161	164
33.0753	171
33.1344	209
33.1936	193
33.2528	235
33.3119	277
33.3711	315
33.4302	356
33.4894	412
33.5486	325
33.6077	264
33.6669	210
33.7261	178
33.7852	192
33.8444	184
33.9036	172
33.9627	166
34.0219	184
34.0811	166
34.1402	168
34.1994	154
34.2585	149
34.3177	166
34.3769	165
34.436	180
34.4952	157
34.5544	172
34.6135	162
34.6727	161
34.7319	149
34.791	184
34.8502	171
34.9094	167
34.9685	199
35.0277	250
35.0868	267
35.146	297
35.2052	292
35.2643	282
35.3235	233
35.3827	247
35.4418	235
35.501	189
35.5602	169
35.6193	206
35.6785	193
35.7376	214
35.7968	238
35.856	210
35.9151	268
35.9743	265
36.0335	260
36.0926	256
36.1518	230
36.211	186
36.2701	188
36.3293	190
36.3885	140
36.4476	172
36.5068	148
36.5659	153
36.6251	161
36.6843	157
36.7434	150
36.8026	154
36.8618	153
36.9209	204
36.9801	150
37.0393	149
37.0984	138
37.1576	167
37.2168	149
37.2759	144
37.3351	135
37.3942	152
37.4534	146
37.5126	164
37.5717	138
37.6309	159
37.6901	152
37.7492	146
37.8084	146
37.8676	147
37.9267	145
37.9859	145
38.045	147
38.1042	161
38.1634	168
38.2225	154
38.2817	129
38.3409	154
38.4	147
38.4592	149
38.5184	150
38.5775	147
38.6367	172
38.6959	147
38.755	159
38.8142	157
38.8733	158
38.9325	156
38.9917	161
39.0508	155
39.11	174
39.1692	144
39.2283	155
39.2875	149
39.3467	148
39.4058	151
39.465	138
39.5241	147
39.5833	155
39.6425	159
39.7016	153
39.7608	168
39.82	172
39.8791	154
39.9383	142
39.9975	174
40.0566	132
40.1158	153
40.175	139
40.2341	172
40.2933	144
40.3524	164
40.4116	159
40.4708	143
40.5299	113
40.5891	160
40.6483	161
40.7074	168
40.7666	140
40.8258	150
40.8849	155
40.9441	158
41.0033	202
41.0624	164
41.1216	203
41.1807	180
41.2399	201
41.2991	187
41.3582	207
41.4174	194
41.4766	180
41.5357	195
41.5949	156
41.6541	164
41.7132	175
41.7724	171
41.8316	182
41.8907	164
41.9499	156
42.009	154
42.0682	158
42.1274	162
42.1865	158
42.2457	161
42.3049	153
42.364	180
42.4232	163
42.4824	199
42.5415	191
42.6007	176
42.6598	188
42.719	168
42.7782	191
42.8373	205
42.8965	184
42.9557	192
43.0148	185
43.074	182
43.1332	198
43.1923	180
43.2515	183
43.3107	223
43.3698	215
43.429	227
43.4881	310
43.5473	426
43.6065	708
43.6656	1779
43.7248	4117
43.784	5428
43.8431	3229
43.9023	2707
43.9615	843
44.0206	434
44.0798	317
44.1389	232
44.1981	220
44.2573	198
44.3164	248
44.3756	221
44.4348	206
44.4939	193
44.5531	185
44.6123	173
44.6714	174
44.7306	178
44.7898	161
44.8489	163
44.9081	154
44.9672	131
45.0264	164
45.0856	163
45.1447	183
45.2039	153
45.2631	136
45.3222	169
45.3814	146
45.4406	145
45.4997	134
45.5589	154
45.6181	155
45.6772	157
45.7364	150
45.7955	156
45.8547	132
45.9139	159
45.973	153
46.0322	146
46.0914	148
46.1505	170
46.2097	146
46.2689	137
46.328	144
46.3872	130
46.4463	170
46.5055	124
46.5647	148
46.6238	134
46.683	154
46.7422	163
46.8013	151
46.8605	173
46.9197	158
46.9788	169
47.038	146
47.0972	150
47.1563	133
47.2155	153
47.2746	136
47.3338	146
47.393	155
47.4521	147
47.5113	151
47.5705	136
47.6296	146
47.6888	163
47.748	158
47.8071	131
47.8663	143
47.9255	155
47.9846	133
48.0438	137
48.1029	164
48.1621	138
48.2213	168
48.2804	143
48.3396	145
48.3988	144
48.4579	164
48.5171	145
48.5763	152
48.6354	141
48.6946	137
48.7537	143
48.8129	156
48.8721	134
48.9312	150
48.9904	153
49.0496	143
49.1087	129
49.1679	147
49.2271	142
49.2862	155
49.3454	144
49.4046	168
49.4637	143
49.5229	128
49.582	161
49.6412	159
49.7004	171
49.7595	142
49.8187	151
49.8779	190
49.937	196
49.9962	165
50.0554	166
50.1145	173
50.1737	190
50.2329	186
50.292	189
50.3512	152
50.4103	166
50.4695	177
50.5287	194
50.5878	197
50.647	256
50.7062	346
50.7653	487
50.8245	788
50.8837	1353
50.9428	1955
51.002	1860
51.0611	1425
51.1203	1109
51.1795	608
51.2386	397
51.2978	271
51.357	189
51.4161	198
51.4753	183
51.5345	184
51.5936	178
51.6528	183
51.712	163
51.7711	174
51.8303	150
51.8894	133
51.9486	162
52.0078	139
52.0669	161
52.1261	145
52.1853	156
52.2444	137
52.3036	141
52.3628	138
52.4219	155
52.4811	151
52.5403	152
52.5994	150
52.6586	161
52.7177	138
52.7769	145
52.8361	138
52.8952	143
52.9544	142
53.0136	161
53.0727	141
53.1319	125
53.1911	147
53.2502	165
53.3094	142
53.3685	149
53.4277	143
53.4869	132
53.546	171
53.6052	140
53.6644	140
53.7235	142
53.7827	152
53.8419	123
53.901	149
53.9602	135
54.0194	131
54.0785	143
54.1377	154
54.1968	145
54.256	138
54.3152	158
54.3743	165
54.4335	195
54.4927	210
54.5518	221
54.611	227
54.6702	234
54.7293	204
54.7885	173
54.8477	179
54.9068	179
54.966	189
55.0251	163
55.0843	148
55.1435	144
55.2026	143
55.2618	165
55.321	139
55.3801	150
55.4393	142
55.4985	130
55.5576	148
55.6168	143
55.6759	134
55.7351	136
55.7943	137
55.8534	121
55.9126	135
55.9718	140
56.0309	140
56.0901	142
56.1493	131
56.2084	144
56.2676	150
56.3268	159
56.3859	144
56.4451	158
56.5042	145
56.5634	155
56.6226	181
56.6817	151
56.7409	151
56.8001	129
56.8592	149
56.9184	146
56.9776	138
57.0367	149
57.0959	132
57.155	127
57.2142	139
57.2734	126
57.3325	146
57.3917	133
57.4509	144
57.51	143
57.5692	158
57.6284	134
57.6875	142
57.7467	147
57.8059	123
57.865	159
57.9242	137
57.9833	123
58.0425	133
58.1017	130
58.1608	126
58.22	112
58.2792	124
58.3383	134
58.3975	109
58.4567	128
58.5158	128
58.575	111
58.6342	135
58.6933	138
58.7525	131
58.8116	126
58.8708	139
58.93	154
58.9891	124
59.0483	157
59.1075	131
59.1666	125
59.2258	128
59.285	139
59.3441	134
59.4033	145
59.4624	121
59.5216	133
59.5808	142
59.6399	136
59.6991	149
59.7583	131
59.8174	116
59.8766	141
59.9358	157
59.9949	172
60.0541	135
60.1133	138
60.1724	135
60.2316	153
60.2907	155
60.3499	125
60.4091	124
60.4682	136
60.5274	152
60.5866	136
60.6457	136
60.7049	125
60.7641	119
60.8232	150
60.8824	133
60.9416	142
61.0007	128
61.0599	134
61.119	130
61.1782	123
61.2374	138
61.2965	141
61.3557	143
61.4149	134
61.474	118
61.5332	121
61.5924	128
61.6515	149
61.7107	124
61.7698	146
61.829	146
61.8882	148
61.9473	147
62.0065	136
62.0657	143
62.1248	160
62.184	157
62.2432	164
62.3023	141
62.3615	126
62.4207	143
62.4798	137
62.539	151
62.5981	145
62.6573	156
62.7165	154
62.7756	175
62.8348	162
62.894	141
62.9531	170
63.0123	150
63.0715	135
63.1306	166
63.1898	156
63.249	177
63.3081	164
63.3673	143
63.4264	163
63.4856	153
63.5448	148
63.6039	140
63.6631	124
63.7223	133
63.7814	133
63.8406	148
63.8998	130
63.9589	171
64.0181	143
64.0772	135
64.1364	159
64.1956	134
64.2547	132
64.3139	143
64.3731	165
64.4322	146
64.4914	167
64.5506	154
64.6097	152
64.6689	163
64.7281	147
64.7872	164
64.8464	148
64.9055	147
64.9647	164
65.0239	155
65.083	145
65.1422	164
65.2014	149
65.2605	132
65.3197	136
65.3789	149
65.438	150
65.4972	155
65.5563	144
65.6155	141
65.6747	133
65.7338	162
65.793	144
65.8522	171
65.9113	139
65.9705	152
66.0297	142
66.0888	147
66.148	155
66.2072	138
66.2663	148
66.3255	136
66.3846	131
66.4438	138
66.503	140
66.5621	136
66.6213	169
66.6805	151
66.7396	147
66.7988	148
66.858	134
66.9171	151
66.9763	151
67.0355	169
67.0946	133
67.1538	140
67.2129	132
67.2721	128
67.3313	141
67.3904	154
67.4496	164
67.5088	155
67.5679	145
67.6271	141
67.6863	142
67.7454	157
67.8046	146
67.8637	154
67.9229	164
67.9821	135
68.0412	137
68.1004	152
68.1596	143
68.2187	153
68.2779	150
68.3371	129
68.3962	159
68.4554	178
68.5146	148
68.5737	156
68.6329	153
68.692	142
68.7512	139
68.8104	137
68.8695	153
68.9287	149
68.9879	160
69.047	154
69.1062	135
69.1654	138
69.2245	163
69.2837	145
69.3429	155
69.402	142
69.4612	146
69.5203	143
69.5795	152
69.6387	124
69.6978	147
69.757	148
69.8162	167
69.8753	171
69.9345	150
69.9937	158
70.0528	151
70.112	162
70.1711	137
70.2303	163
70.2895	128
70.3486	166
70.4078	147
70.467	136
70.5261	157
70.5853	143
70.6445	137
70.7036	153
70.7628	145
70.822	176
70.8811	144
70.9403	140
70.9994	161
71.0586	145
71.1178	162
71.1769	137
71.2361	151
71.2953	132
71.3544	150
71.4136	132
71.4728	166
71.5319	121
71.5911	134
71.6503	148
71.7094	125
71.7686	135
71.8277	147
71.8869	150
71.9461	139
72.0052	160
72.0644	156
72.1236	154
72.1827	147
72.2419	164
72.3011	134
72.3602	157
72.4194	155
72.4785	153
72.5377	168
72.5969	134
72.656	164
72.7152	157
72.7744	164
72.8335	164
72.8927	155
72.9519	157
73.011	165
73.0702	156
73.1294	172
73.1885	140
73.2477	163
73.3068	155
73.366	145
73.4252	184
73.4843	140
73.5435	149
73.6027	164
73.6618	181
73.721	157
73.7802	158
73.8393	140
73.8985	156
73.9577	155
74.0168	139
74.076	164
74.1351	168
74.1943	164
74.2535	183
74.3126	164
74.3718	174
74.431	167
74.4901	184
74.5493	175
74.6085	204
74.6676	238
74.7268	389
74.7859	576
74.8451	669
74.9043	697
74.9634	674
75.0226	579
75.0818	530
75.1409	431
75.2001	329
75.2593	251
75.3184	187
75.3776	182
75.4368	163
75.4959	172
75.5551	180
75.6142	164
75.6734	164
75.7326	154
75.7917	150
75.8509	154
75.9101	171
75.9692	142
76.0284	157
76.0876	148
76.1467	177
76.2059	150
76.2651	163
76.3242	156
76.3834	164
76.4425	182
76.5017	162
76.5609	166
76.62	145
76.6792	157
76.7384	169
76.7975	150
76.8567	155
76.9159	147
76.975	171
77.0342	168
77.0933	134
77.1525	153
77.2117	190
77.2708	165
77.33	175
77.3892	179
77.4483	145
77.5075	170
77.5667	164
77.6258	151
77.685	166
77.7442	148
77.8033	133
77.8625	172
77.9216	134
77.9808	165
78.04	147
78.0991	155
78.1583	161
78.2175	143
78.2766	147
78.3358	151
78.395	166
78.4541	152
78.5133	168
78.5725	147
78.6316	160
78.6908	183
78.7499	150
78.8091	159
78.8683	162
78.9274	156
78.9866	167
79.0458	157
79.1049	158
79.1641	138
79.2233	173
79.2824	165
79.3416	166
79.4007	130
79.4599	125
79.5191	149
79.5782	183
79.6374	176
79.6966	147
79.7557	142
79.8149	179
79.8741	160
79.9332	158
79.9924	164
80.0516	178
80.1107	139
80.1699	148
80.229	146
80.2882	148
80.3474	142
80.4065	155
80.4657	140
80.5249	143
80.584	167
80.6432	172
80.7024	157
80.7615	147
80.8207	167
80.8799	173
80.939	155
80.9982	157
81.0573	171
81.1165	137
81.1757	147
81.2348	165
81.294	137
81.3532	163
81.4123	148
81.4715	153
81.5307	153
81.5898	173
81.649	168
81.7081	144
81.7673	148
81.8265	150
81.8856	141
81.9448	138
82.004	143
82.0631	159
82.1223	139
82.1815	169
82.2406	145
82.2998	156
82.359	140
82.4181	170
82.4773	177
82.5364	141
82.5956	148
82.6548	145
82.7139	140
82.7731	158
82.8323	160
82.8914	142
82.9506	153
83.0098	166
83.0689	172
83.1281	151
83.1873	135
83.2464	142
83.3056	152
83.3647	125
83.4239	182
83.4831	147
83.5422	136
83.6014	137
83.6606	175
83.7197	147
83.7789	137
83.8381	157
83.8972	165
83.9564	170
84.0155	145
84.0747	154
84.1339	145
84.193	153
84.2522	159
84.3114	160
84.3705	161
84.4297	158
84.4889	178
84.548	159
84.6072	141
84.6664	175
84.7255	142
84.7847	149
84.8438	156
84.903	140
84.9622	141
85.0213	149
85.0805	143
85.1397	138
85.1988	137
85.258	134
85.3172	171
85.3763	141
85.4355	138
85.4946	136
85.5538	170
85.613	151
85.6721	140
85.7313	162
85.7905	140
85.8496	165
85.9088	142
85.968	138
86.0271	151
86.0863	147
86.1455	148
86.2046	135
86.2638	148
86.3229	129
86.3821	160
86.4413	155
86.5004	165
86.5596	157
86.6188	140
86.6779	159
86.7371	156
86.7963	131
86.8554	161
86.9146	134
86.9738	146
87.0329	142
87.0921	162
87.1512	140
87.2104	135
87.2696	137
87.3287	156
87.3879	144
87.4471	137
87.5062	160
87.5654	156
87.6246	142
87.6837	128
87.7429	144
87.802	151
87.8612	163
87.9204	157
87.9795	166
88.0387	145
88.0979	169
88.157	143
88.2162	135
88.2754	141
88.3345	134
88.3937	159
88.4529	134
88.512	163
88.5712	146
88.6303	155
88.6895	155
88.7487	153
88.8078	126
88.867	133
88.9262	141
88.9853	155
89.0445	164
89.1037	140
89.1628	132
89.222	142
89.2812	143
89.3403	134
89.3995	147
89.4586	147
89.5178	147
89.577	144
89.6361	173
89.6953	142
89.7545	133
89.8136	156
89.8728	149
89.932	156
89.9911	161